,participant,trial,offer,choice_key,choice_rt,rating_rt,rating_start,rating,choice_rej,choice_acc,offer_bin,rating_z,rating_delta,rating_fill,log_rt
0,54e32a60fdf99b3eae9de85b,0.0,5.0,left,2.1515,,12.0,,0.0,1.0,Medium,,,,0.7661652732965173
1,54e32a60fdf99b3eae9de85b,1.0,3.0,left,1.1463,,50.0,,0.0,1.0,Low,,,,0.136539364138827
2,54e32a60fdf99b3eae9de85b,2.0,8.0,left,1.1505,,50.0,,0.0,1.0,High,,,,0.1401966304932836
3,54e32a60fdf99b3eae9de85b,3.0,4.0,left,0.7025,2.7182,42.0,22.0,0.0,1.0,Medium,-0.10273685615837246,-20.0,-20.0,-0.3531098777742362
4,54e32a60fdf99b3eae9de85b,4.0,6.0,left,2.1044,,9.0,,0.0,1.0,Medium,,,-20.0,0.7440303908745152
5,54e32a60fdf99b3eae9de85b,5.0,9.0,left,0.458,,39.0,,0.0,1.0,High,,,-20.0,-0.780886094867952
6,54e32a60fdf99b3eae9de85b,6.0,4.0,left,3.4047,,40.0,,0.0,1.0,Medium,,,-20.0,1.225156829993066
7,54e32a60fdf99b3eae9de85b,7.0,2.0,left,0.4475,2.5499,50.0,15.0,0.0,1.0,Low,-1.2091337686331551,-35.0,-35.0,-0.804078741267227
8,54e32a60fdf99b3eae9de85b,8.0,8.0,left,2.9984,,30.0,,0.0,1.0,High,,,-35.0,1.098078813061966
9,54e32a60fdf99b3eae9de85b,9.0,4.0,left,1.3139,2.5184,50.0,30.0,0.0,1.0,Medium,1.161716758098522,-20.0,-20.0,0.2729998136656394
10,54e32a60fdf99b3eae9de85b,10.0,5.0,left,1.5327,,50.0,,0.0,1.0,Medium,,,-20.0,0.4270308860227249
11,54e32a60fdf99b3eae9de85b,11.0,8.0,left,2.9448,,33.0,,0.0,1.0,High,,,-20.0,1.0800409030826743
12,54e32a60fdf99b3eae9de85b,12.0,5.0,left,5.4579,,29.0,,0.0,1.0,Medium,,,-20.0,1.6970641003887306
13,54e32a60fdf99b3eae9de85b,13.0,5.0,left,2.2978,115.0863,34.0,24.0,0.0,1.0,Medium,0.21337654740585116,-10.0,-10.0,0.8319521434371274
14,54e32a60fdf99b3eae9de85b,14.0,7.0,left,1.0882,,27.0,,0.0,1.0,High,,,-10.0,0.08452495506968796
15,54e32a60fdf99b3eae9de85b,15.0,6.0,left,2.4965,,23.0,,0.0,1.0,Medium,,,-10.0,0.914889750958527
16,54e32a60fdf99b3eae9de85b,16.0,5.0,left,1.9852,7.4833,44.0,29.0,0.0,1.0,Medium,1.0036600563164102,-15.0,-15.0,0.6857196647311488
17,54e32a60fdf99b3eae9de85b,17.0,2.0,left,2.6625,,9.0,,0.0,1.0,Low,,,-15.0,0.9792655310355435
18,54e32a60fdf99b3eae9de85b,18.0,4.0,left,0.8182,,11.0,,0.0,1.0,Medium,,,-15.0,-0.2006484734868388
19,54e32a60fdf99b3eae9de85b,19.0,2.0,left,21.7119,37.0667,50.0,20.0,0.0,1.0,Low,-0.4188502597225961,-30.0,-30.0,3.0778604973339334
20,54e32a60fdf99b3eae9de85b,20.0,5.0,left,1.1578,,50.0,,0.0,1.0,Medium,,,-30.0,0.14652165266276715
21,54e32a60fdf99b3eae9de85b,21.0,7.0,left,5.0781,8.3816,37.0,27.0,0.0,1.0,High,0.6875466527521866,-10.0,-10.0,1.6249371758810243
22,54e32a60fdf99b3eae9de85b,22.0,6.0,left,8.4018,,30.0,,0.0,1.0,Medium,,,-10.0,2.1284459686076493
23,54e32a60fdf99b3eae9de85b,23.0,6.0,left,5.1396,3.3979,15.0,20.0,0.0,1.0,Medium,-0.4188502597225961,5.0,5.0,1.6369752554271886
24,54e32a60fdf99b3eae9de85b,24.0,1.0,left,10.1682,,50.0,,0.0,1.0,Low,,,5.0,2.3192652032452443
25,54e32a60fdf99b3eae9de85b,25.0,1.0,left,1.6147,,50.0,,0.0,1.0,Low,,,5.0,0.47914918090543834
26,54e32a60fdf99b3eae9de85b,26.0,9.0,left,1.2546,10.2836,50.0,30.0,0.0,1.0,High,1.161716758098522,-20.0,-20.0,0.22681679668050578
27,54e32a60fdf99b3eae9de85b,27.0,3.0,left,2.9523,,26.0,,0.0,1.0,Low,,,-20.0,1.0825845275909125
28,54e32a60fdf99b3eae9de85b,28.0,7.0,left,6.4857,,50.0,,0.0,1.0,High,,,-20.0,1.8695997533463913
29,54e32a60fdf99b3eae9de85b,29.0,3.0,left,3.1238,18.5527,50.0,25.0,0.0,1.0,Low,0.371433249187963,-25.0,-25.0,1.1390502094414852
30,54e32a60fdf99b3eae9de85b,0.0,5.0,left,1.2973,,50.0,,0.0,1.0,Medium,,,-25.0,0.2602851815948296
31,54e32a60fdf99b3eae9de85b,1.0,4.0,left,2.5295,,19.0,,0.0,1.0,Medium,,,-25.0,0.9280216547498538
32,54e32a60fdf99b3eae9de85b,2.0,5.0,left,2.7063,,50.0,,0.0,1.0,Medium,,,-25.0,0.9955823883485657
33,54e32a60fdf99b3eae9de85b,3.0,1.0,left,1.8083,2.875,50.0,5.0,0.0,1.0,Low,-2.789700786454273,-45.0,-45.0,0.5923871774087969
34,54e32a60fdf99b3eae9de85b,4.0,7.0,left,3.0927,,35.0,,0.0,1.0,High,,,-45.0,1.1290444957883117
35,54e32a60fdf99b3eae9de85b,5.0,6.0,left,1.4585,,50.0,,0.0,1.0,Medium,,,-45.0,0.377408510325639
36,54e32a60fdf99b3eae9de85b,6.0,4.0,left,0.4346,,42.0,,0.0,1.0,Medium,,,-45.0,-0.8333292111598078
37,54e32a60fdf99b3eae9de85b,7.0,7.0,left,1.7442,4.5401,6.0,25.0,0.0,1.0,High,0.371433249187963,19.0,19.0,0.5562959978107481
38,54e32a60fdf99b3eae9de85b,8.0,7.0,left,4.0322,,7.0,,0.0,1.0,High,,,19.0,1.3943121327134738
39,54e32a60fdf99b3eae9de85b,9.0,4.0,left,0.5126,1.9739,6.0,11.0,0.0,1.0,Medium,-1.8413605757616023,5.0,5.0,-0.6682594650521664
40,54e32a60fdf99b3eae9de85b,10.0,9.0,left,2.0604,,50.0,,0.0,1.0,High,,,5.0,0.7229001387092931
41,54e32a60fdf99b3eae9de85b,11.0,8.0,left,1.1325,,40.0,,0.0,1.0,High,,,5.0,0.12442757837505208
42,54e32a60fdf99b3eae9de85b,12.0,1.0,left,0.7191,,50.0,,0.0,1.0,Low,,,5.0,-0.3297548488736887
43,54e32a60fdf99b3eae9de85b,13.0,6.0,left,0.954,2.2517,50.0,20.0,0.0,1.0,Medium,-0.4188502597225961,-30.0,-30.0,-0.04709160753385057
44,54e32a60fdf99b3eae9de85b,14.0,5.0,left,0.7424,,40.0,,0.0,1.0,Medium,,,-30.0,-0.2978670975101463
45,54e32a60fdf99b3eae9de85b,15.0,5.0,left,0.2882,,10.0,,0.0,1.0,Medium,,,-30.0,-1.2441005954167152
46,54e32a60fdf99b3eae9de85b,16.0,2.0,left,0.3725,2.3636,25.0,25.0,0.0,1.0,Low,0.371433249187963,0.0,0.0,-0.9875182411625228
47,54e32a60fdf99b3eae9de85b,17.0,8.0,left,2.8609,,47.0,,0.0,1.0,High,,,0.0,1.0511362606434078
48,54e32a60fdf99b3eae9de85b,18.0,5.0,left,3.4995,,19.0,,0.0,1.0,Medium,,,0.0,1.2526201011474571
49,54e32a60fdf99b3eae9de85b,19.0,3.0,left,0.1337,2.3012,17.0,22.0,0.0,1.0,Low,-0.10273685615837246,5.0,5.0,-2.0121567948742394
50,54e32a60fdf99b3eae9de85b,20.0,8.0,left,1.3338,,41.0,,0.0,1.0,High,,,5.0,0.2880320112160689
51,54e32a60fdf99b3eae9de85b,21.0,2.0,left,0.2084,3.2302,50.0,25.0,0.0,1.0,Low,0.371433249187963,-25.0,-25.0,-1.5682959691029252
52,54e32a60fdf99b3eae9de85b,22.0,9.0,left,1.8038,,10.0,,0.0,1.0,High,,,-25.0,0.5898955507494708
53,54e32a60fdf99b3eae9de85b,23.0,2.0,left,0.4323,2.0439,26.0,26.0,0.0,1.0,Low,0.5294899509700748,0.0,0.0,-0.8386354873085509
54,54e32a60fdf99b3eae9de85b,24.0,6.0,left,2.4142,,12.0,,0.0,1.0,Medium,,,0.0,0.8813679692848897
55,54e32a60fdf99b3eae9de85b,25.0,5.0,left,1.6121,,18.0,,0.0,1.0,Medium,,,0.0,0.4775376768998158
56,54e32a60fdf99b3eae9de85b,26.0,4.0,left,0.7235,1.7078,44.0,24.0,0.0,1.0,Medium,0.21337654740585116,-20.0,-20.0,-0.32365473291059843
57,54e32a60fdf99b3eae9de85b,27.0,3.0,left,2.6121,,50.0,,0.0,1.0,Low,,,-20.0,0.9601544955205426
58,54e32a60fdf99b3eae9de85b,28.0,6.0,left,1.5256,,50.0,,0.0,1.0,Medium,,,-20.0,0.4223877753040723
59,54e32a60fdf99b3eae9de85b,29.0,3.0,left,0.7519,4.1167,18.0,28.0,0.0,1.0,Low,0.8456033545342985,10.0,10.0,-0.2851519425981558
0,5590a34cfdf99b729d4f69dc,0.0,5.0,left,2.1831,,20.0,,0.0,1.0,Medium,,,,0.7807458850390134
1,5590a34cfdf99b729d4f69dc,1.0,4.0,right,2.4379,6.2661,50.0,40.0,1.0,0.0,Medium,1.4509962485005252,-10.0,-10.0,0.8911370129906149
2,5590a34cfdf99b729d4f69dc,2.0,3.0,right,2.739,,50.0,,1.0,0.0,Low,,,-10.0,1.007592890280941
3,5590a34cfdf99b729d4f69dc,3.0,7.0,left,1.7871,,17.0,,0.0,1.0,High,,,-10.0,0.5805941943206143
4,5590a34cfdf99b729d4f69dc,4.0,9.0,left,1.7434,,10.0,,0.0,1.0,High,,,-10.0,0.5558372295953387
5,5590a34cfdf99b729d4f69dc,5.0,5.0,left,1.6416,3.9812,50.0,30.0,0.0,1.0,Medium,-0.9276861260904992,-20.0,-20.0,0.4956713759943133
6,5590a34cfdf99b729d4f69dc,6.0,4.0,right,2.0898,,50.0,,1.0,0.0,Medium,,,-20.0,0.7370683676178734
7,5590a34cfdf99b729d4f69dc,7.0,6.0,left,1.687,,50.0,,0.0,1.0,Medium,,,-20.0,0.5229518035638313
8,5590a34cfdf99b729d4f69dc,8.0,5.0,left,1.0575,3.3975,50.0,30.0,0.0,1.0,Medium,-0.9276861260904992,-20.0,-20.0,0.055907631938296086
9,5590a34cfdf99b729d4f69dc,9.0,6.0,left,3.2107,,30.0,,0.0,1.0,Medium,,,-20.0,1.166488981904263
10,5590a34cfdf99b729d4f69dc,10.0,2.0,right,1.8017,3.3527,50.0,35.0,1.0,0.0,Low,0.26165506120501303,-15.0,-15.0,0.5887306636395174
11,5590a34cfdf99b729d4f69dc,11.0,7.0,left,1.229,,50.0,,0.0,1.0,High,,,-15.0,0.20620083058389785
12,5590a34cfdf99b729d4f69dc,12.0,6.0,left,1.2469,,34.0,,0.0,1.0,Medium,,,-15.0,0.22066047102040334
13,5590a34cfdf99b729d4f69dc,13.0,1.0,right,1.9538,,50.0,,1.0,0.0,Low,,,-15.0,0.6697761942367051
14,5590a34cfdf99b729d4f69dc,14.0,4.0,left,3.5031,3.0566,16.0,21.0,0.0,1.0,Medium,-3.0685002632224214,5.0,5.0,1.2536482907676418
15,5590a34cfdf99b729d4f69dc,15.0,1.0,right,2.1547,,26.0,,1.0,0.0,Low,,,5.0,0.7676515027280505
16,5590a34cfdf99b729d4f69dc,16.0,4.0,right,3.2358,,14.0,,1.0,0.0,Medium,,,5.0,1.1742761925890992
17,5590a34cfdf99b729d4f69dc,17.0,3.0,right,2.5219,2.9031,50.0,35.0,1.0,0.0,Low,0.26165506120501303,-15.0,-15.0,0.9250125856860244
18,5590a34cfdf99b729d4f69dc,18.0,3.0,right,1.5471,,50.0,,1.0,0.0,Low,,,-15.0,0.43638221074288586
19,5590a34cfdf99b729d4f69dc,19.0,9.0,left,1.5745,3.2666,50.0,35.0,0.0,1.0,High,0.26165506120501303,-15.0,-15.0,0.4539377615589423
20,5590a34cfdf99b729d4f69dc,20.0,8.0,left,1.8798,,50.0,,0.0,1.0,High,,,-15.0,0.631165388204064
21,5590a34cfdf99b729d4f69dc,21.0,2.0,right,1.5054,,50.0,,1.0,0.0,Low,,,-15.0,0.4090586436182946
22,5590a34cfdf99b729d4f69dc,22.0,7.0,left,1.2627,2.5978,50.0,40.0,0.0,1.0,High,1.4509962485005252,-10.0,-10.0,0.23325228546249754
23,5590a34cfdf99b729d4f69dc,23.0,8.0,left,2.1346,,50.0,,0.0,1.0,High,,,-10.0,0.7582792754977274
24,5590a34cfdf99b729d4f69dc,24.0,8.0,left,0.972,,17.0,,0.0,1.0,High,,,-10.0,-0.028399474521698
25,5590a34cfdf99b729d4f69dc,25.0,5.0,left,1.1779,,50.0,,0.0,1.0,Medium,,,-10.0,0.16373319198260172
26,5590a34cfdf99b729d4f69dc,26.0,2.0,right,2.0285,5.7016,50.0,35.0,1.0,0.0,Low,0.26165506120501303,-15.0,-15.0,0.707296603664365
27,5590a34cfdf99b729d4f69dc,27.0,5.0,left,1.5065,,10.0,,0.0,1.0,Medium,,,-15.0,0.40978907958821886
28,5590a34cfdf99b729d4f69dc,28.0,6.0,left,0.9171,,36.0,,0.0,1.0,Medium,,,-15.0,-0.08653876141723851
29,5590a34cfdf99b729d4f69dc,29.0,5.0,left,1.0826,3.4636,20.0,40.0,0.0,1.0,Medium,1.4509962485005252,,-15.0,0.07936555538074047
30,5590a34cfdf99b729d4f69dc,0.0,5.0,left,1.4589,,25.0,,0.0,1.0,Medium,,,-15.0,0.3776827270957128
31,5590a34cfdf99b729d4f69dc,1.0,4.0,right,1.6997,4.7317,24.0,34.0,1.0,0.0,Medium,0.023786823745910582,10.0,10.0,0.5304517649011687
32,5590a34cfdf99b729d4f69dc,2.0,4.0,right,1.3934,,23.0,,1.0,0.0,Medium,,,10.0,0.3317468036138815
33,5590a34cfdf99b729d4f69dc,3.0,6.0,left,1.5377,,39.0,,0.0,1.0,Medium,,,10.0,0.4302877935395102
34,5590a34cfdf99b729d4f69dc,4.0,2.0,right,1.603,,50.0,,1.0,0.0,Low,,,10.0,0.47187687362741587
35,5590a34cfdf99b729d4f69dc,5.0,2.0,right,1.3755,2.8488,22.0,32.0,1.0,0.0,Low,-0.4519496511722943,10.0,10.0,0.31881730138249215
36,5590a34cfdf99b729d4f69dc,6.0,6.0,left,2.0778,,50.0,,0.0,1.0,Medium,,,10.0,0.7313096416542941
37,5590a34cfdf99b729d4f69dc,7.0,5.0,left,1.5967,,50.0,,0.0,1.0,Medium,,,10.0,0.4679389993635186
38,5590a34cfdf99b729d4f69dc,8.0,5.0,left,0.9644,3.581,17.0,32.0,0.0,1.0,Medium,-0.4519496511722943,15.0,15.0,-0.03624913267512103
39,5590a34cfdf99b729d4f69dc,9.0,8.0,left,1.1016,,50.0,,0.0,1.0,High,,,15.0,0.09676366843230796
40,5590a34cfdf99b729d4f69dc,10.0,7.0,left,0.845,2.242,50.0,35.0,0.0,1.0,High,0.26165506120501303,-15.0,-15.0,-0.16841865162496325
41,5590a34cfdf99b729d4f69dc,11.0,7.0,left,1.797,,9.0,,0.0,1.0,High,,,-15.0,0.586118607801422
42,5590a34cfdf99b729d4f69dc,12.0,2.0,right,1.4535,,20.0,,1.0,0.0,Low,,,-15.0,0.37397444101679356
43,5590a34cfdf99b729d4f69dc,13.0,7.0,left,2.4789,,50.0,,0.0,1.0,High,,,-15.0,0.9078149133931113
44,5590a34cfdf99b729d4f69dc,14.0,5.0,left,0.8681,2.6755,50.0,35.0,0.0,1.0,Medium,0.26165506120501303,-15.0,-15.0,-0.1414483635843748
45,5590a34cfdf99b729d4f69dc,15.0,6.0,left,1.6057,,50.0,,0.0,1.0,Medium,,,-15.0,0.4735597985735019
46,5590a34cfdf99b729d4f69dc,16.0,8.0,left,1.5461,,50.0,,0.0,1.0,High,,,-15.0,0.4357356311264119
47,5590a34cfdf99b729d4f69dc,17.0,4.0,right,2.0495,4.9068,50.0,35.0,1.0,0.0,Medium,0.26165506120501303,-15.0,-15.0,0.7175958609622552
48,5590a34cfdf99b729d4f69dc,18.0,4.0,right,2.9016,,50.0,,1.0,0.0,Medium,,,-15.0,1.0652623089865556
49,5590a34cfdf99b729d4f69dc,19.0,3.0,right,1.1623,5.6371,8.0,33.0,1.0,0.0,Low,-0.21408141371319186,25.0,25.0,0.15040080066752531
50,5590a34cfdf99b729d4f69dc,20.0,1.0,right,1.7375,,50.0,,1.0,0.0,Low,,,25.0,0.5524472984568102
51,5590a34cfdf99b729d4f69dc,21.0,5.0,left,1.6842,,50.0,,0.0,1.0,Medium,,,25.0,0.5212906736137547
52,5590a34cfdf99b729d4f69dc,22.0,1.0,right,1.4499,5.2744,26.0,31.0,1.0,0.0,Low,-0.6898178886313968,5.0,5.0,0.371494588537011
53,5590a34cfdf99b729d4f69dc,23.0,9.0,left,2.2807,,50.0,,0.0,1.0,High,,,5.0,0.8244824133899672
54,5590a34cfdf99b729d4f69dc,24.0,5.0,left,2.3632,,50.0,,0.0,1.0,Medium,,,5.0,0.8600166327949783
55,5590a34cfdf99b729d4f69dc,25.0,3.0,right,2.1735,,50.0,,1.0,0.0,Low,,,5.0,0.7763387714467098
56,5590a34cfdf99b729d4f69dc,26.0,8.0,left,1.1957,2.8539,50.0,35.0,0.0,1.0,High,0.26165506120501303,-15.0,-15.0,0.17873178794339725
57,5590a34cfdf99b729d4f69dc,27.0,3.0,right,4.1803,,50.0,,1.0,0.0,Low,,,-15.0,1.430383014296226
58,5590a34cfdf99b729d4f69dc,28.0,6.0,left,1.7689,,42.0,,0.0,1.0,Medium,,,-15.0,0.5703578844673247
59,5590a34cfdf99b729d4f69dc,29.0,9.0,left,1.2859,9.1503,50.0,35.0,0.0,1.0,High,0.26165506120501303,-15.0,-15.0,0.25145886229425624
0,5596a991fdf99b2d1e834690,0.0,5.0,left,0.4313,,11.0,,0.0,1.0,Medium,,,,-0.8409513753283395
1,5596a991fdf99b2d1e834690,1.0,6.0,left,1.2775,,50.0,,0.0,1.0,Medium,,,,0.2449050430957225
2,5596a991fdf99b2d1e834690,2.0,7.0,left,0.8946,2.3728,34.0,50.0,0.0,1.0,High,,16.0,16.0,-0.11137858798338937
3,5596a991fdf99b2d1e834690,3.0,5.0,left,1.1196,,29.0,,0.0,1.0,Medium,,,16.0,0.11297147865916134
4,5596a991fdf99b2d1e834690,4.0,2.0,right,0.6825,,28.0,,1.0,0.0,Low,,,16.0,-0.38199275192302223
5,5596a991fdf99b2d1e834690,5.0,5.0,left,0.8058,,50.0,,0.0,1.0,Medium,,,16.0,-0.2159197062248902
6,5596a991fdf99b2d1e834690,6.0,8.0,left,0.9178,1.3102,50.0,50.0,0.0,1.0,High,,0.0,0.0,-0.08577577702140397
7,5596a991fdf99b2d1e834690,7.0,9.0,left,1.0358,,50.0,,0.0,1.0,High,,,0.0,0.035174075007654085
8,5596a991fdf99b2d1e834690,8.0,4.0,left,1.4839,,35.0,,0.0,1.0,Medium,,,0.0,0.3946737570299437
9,5596a991fdf99b2d1e834690,9.0,4.0,left,1.0449,2.2919,38.0,50.0,0.0,1.0,Medium,,12.0,12.0,0.043921187057928086
10,5596a991fdf99b2d1e834690,10.0,3.0,left,4.8783,,50.0,,0.0,1.0,Low,,,12.0,1.5847967985176494
11,5596a991fdf99b2d1e834690,11.0,6.0,left,1.2351,1.4317,50.0,50.0,0.0,1.0,Medium,,0.0,0.0,0.21115193846183172
12,5596a991fdf99b2d1e834690,12.0,7.0,left,2.3199,,50.0,,0.0,1.0,High,,,0.0,0.8415240813009625
13,5596a991fdf99b2d1e834690,13.0,2.0,right,1.1697,,10.0,,1.0,0.0,Low,,,0.0,0.15674730567452425
14,5596a991fdf99b2d1e834690,14.0,8.0,left,1.8513,,36.0,,0.0,1.0,High,,,0.0,0.6158880950129938
15,5596a991fdf99b2d1e834690,15.0,1.0,right,1.0125,1.2426,50.0,50.0,1.0,0.0,Low,,0.0,0.0,0.01242251999855711
16,5596a991fdf99b2d1e834690,16.0,5.0,left,0.7826,,50.0,,0.0,1.0,Medium,,,0.0,-0.24513356920582502
17,5596a991fdf99b2d1e834690,17.0,3.0,left,0.9661,1.51,50.0,50.0,0.0,1.0,Low,,0.0,0.0,-0.03448793045867319
18,5596a991fdf99b2d1e834690,18.0,1.0,right,0.937,,21.0,,1.0,0.0,Low,,,0.0,-0.0650719967437148
19,5596a991fdf99b2d1e834690,19.0,5.0,left,0.8749,,24.0,,0.0,1.0,Medium,,,0.0,-0.13364568486991818
20,5596a991fdf99b2d1e834690,20.0,7.0,left,0.8343,,50.0,,0.0,1.0,High,,,0.0,-0.18116222907410814
21,5596a991fdf99b2d1e834690,21.0,8.0,left,1.1,1.5456,50.0,50.0,0.0,1.0,High,,0.0,0.0,0.09531017980432493
22,5596a991fdf99b2d1e834690,22.0,2.0,right,1.0363,,41.0,,1.0,0.0,Low,,,0.0,0.035656677208034684
23,5596a991fdf99b2d1e834690,23.0,4.0,left,1.1321,,36.0,,0.0,1.0,Medium,,,0.0,0.12407431510192678
24,5596a991fdf99b2d1e834690,24.0,3.0,left,0.7368,2.0123,19.0,50.0,0.0,1.0,Low,,31.0,31.0,-0.30543879404103996
25,5596a991fdf99b2d1e834690,25.0,6.0,left,0.9209,,36.0,,0.0,1.0,Medium,,,31.0,-0.08240382625481565
26,5596a991fdf99b2d1e834690,26.0,4.0,left,0.887,,50.0,,0.0,1.0,Medium,,,31.0,-0.11991029667255755
27,5596a991fdf99b2d1e834690,27.0,9.0,left,0.8362,1.3459,50.0,50.0,0.0,1.0,High,,0.0,0.0,-0.17888746005967235
28,5596a991fdf99b2d1e834690,28.0,5.0,left,0.8532,,50.0,,0.0,1.0,Medium,,,0.0,-0.1587612923849416
29,5596a991fdf99b2d1e834690,29.0,6.0,left,0.7864,1.7785,34.0,50.0,0.0,1.0,Medium,,16.0,16.0,-0.24028971014918027
30,5596a991fdf99b2d1e834690,0.0,5.0,left,0.952,,50.0,,0.0,1.0,Medium,,,16.0,-0.04919024419077178
31,5596a991fdf99b2d1e834690,1.0,9.0,left,0.4929,,50.0,,0.0,1.0,High,,,16.0,-0.7074489652708049
32,5596a991fdf99b2d1e834690,2.0,2.0,right,0.8392,1.0493,50.0,50.0,1.0,0.0,Low,,0.0,0.0,-0.17530622190004969
33,5596a991fdf99b2d1e834690,3.0,5.0,left,0.7463,,41.0,,0.0,1.0,Medium,,,0.0,-0.2926276148447954
34,5596a991fdf99b2d1e834690,4.0,6.0,left,0.715,,32.0,,0.0,1.0,Medium,,,0.0,-0.33547273628812946
35,5596a991fdf99b2d1e834690,5.0,4.0,left,0.6426,,50.0,,0.0,1.0,Medium,,,0.0,-0.442232832300379
36,5596a991fdf99b2d1e834690,6.0,5.0,left,0.5397,1.4952,50.0,50.0,0.0,1.0,Medium,,0.0,0.0,-0.6167418493575401
37,5596a991fdf99b2d1e834690,7.0,1.0,right,0.6376,,50.0,,1.0,0.0,Low,,,0.0,-0.45004415150613186
38,5596a991fdf99b2d1e834690,8.0,5.0,left,0.9561,,50.0,,0.0,1.0,Medium,,,0.0,-0.044892768890736685
39,5596a991fdf99b2d1e834690,9.0,4.0,left,0.7355,1.9986,8.0,50.0,0.0,1.0,Medium,,42.0,42.0,-0.30720473894064476
40,5596a991fdf99b2d1e834690,10.0,3.0,left,0.9011,,50.0,,0.0,1.0,Low,,,42.0,-0.1041390397411454
41,5596a991fdf99b2d1e834690,11.0,7.0,left,0.8839,1.3613,50.0,50.0,0.0,1.0,High,,0.0,0.0,-0.12341134491523476
42,5596a991fdf99b2d1e834690,12.0,8.0,left,0.6695,,50.0,,0.0,1.0,High,,,0.0,-0.4012241138509099
43,5596a991fdf99b2d1e834690,13.0,3.0,left,1.172,,50.0,,0.0,1.0,Low,,,0.0,0.1587116911548208
44,5596a991fdf99b2d1e834690,14.0,4.0,left,0.9029,,50.0,,0.0,1.0,Medium,,,0.0,-0.10214347366870352
45,5596a991fdf99b2d1e834690,15.0,8.0,left,1.084,1.3618,50.0,50.0,0.0,1.0,High,,0.0,0.0,0.08065790301745454
46,5596a991fdf99b2d1e834690,16.0,6.0,left,1.1551,,40.0,,0.0,1.0,Medium,,,0.0,0.14418692031249758
47,5596a991fdf99b2d1e834690,17.0,1.0,right,1.4995,2.5065,39.0,50.0,1.0,0.0,Low,,11.0,11.0,0.40513171920692675
48,5596a991fdf99b2d1e834690,18.0,6.0,left,2.5751,,50.0,,0.0,1.0,Medium,,,11.0,0.9458883683130985
49,5596a991fdf99b2d1e834690,19.0,9.0,left,1.6862,,50.0,,0.0,1.0,High,,,11.0,0.5224774765064382
50,5596a991fdf99b2d1e834690,20.0,4.0,left,1.2375,,20.0,,0.0,1.0,Medium,,,11.0,0.21309321546070836
51,5596a991fdf99b2d1e834690,21.0,7.0,left,0.5371,1.6446,50.0,50.0,0.0,1.0,High,,0.0,0.0,-0.6215709820707234
52,5596a991fdf99b2d1e834690,22.0,5.0,left,1.0718,,50.0,,0.0,1.0,Medium,,,0.0,0.0693394780786129
53,5596a991fdf99b2d1e834690,23.0,5.0,left,1.6798,,50.0,,0.0,1.0,Medium,,,0.0,0.5186747387093896
54,5596a991fdf99b2d1e834690,24.0,2.0,right,1.2201,3.0736,9.0,50.0,1.0,0.0,Low,,41.0,41.0,0.19893282259915146
55,5596a991fdf99b2d1e834690,25.0,3.0,left,1.3568,,50.0,,0.0,1.0,Low,,,41.0,0.3051289860555016
56,5596a991fdf99b2d1e834690,26.0,2.0,right,0.9724,,50.0,,1.0,0.0,Low,,,41.0,-0.027988036540168713
57,5596a991fdf99b2d1e834690,27.0,7.0,left,0.9041,2.8612,21.0,50.0,0.0,1.0,High,,29.0,29.0,-0.10081530523881628
58,5596a991fdf99b2d1e834690,28.0,6.0,left,1.3208,,38.0,,0.0,1.0,Medium,,,29.0,0.2782376136237812
59,5596a991fdf99b2d1e834690,29.0,8.0,left,1.0169,1.5299,50.0,50.0,0.0,1.0,High,,0.0,0.0,0.016758783814954624
0,55b237e6fdf99b19ea79d2f7,0.0,5.0,left,1.489,,50.0,,0.0,1.0,Medium,,,,0.398104753701872
1,55b237e6fdf99b19ea79d2f7,1.0,5.0,left,0.6597,3.8534,7.0,27.0,0.0,1.0,Medium,0.13946245398549786,20.0,20.0,-0.4159700927533119
2,55b237e6fdf99b19ea79d2f7,2.0,2.0,right,1.1566,,50.0,,1.0,0.0,Low,,,20.0,0.1454846667419809
3,55b237e6fdf99b19ea79d2f7,3.0,5.0,left,0.9581,,23.0,,0.0,1.0,Medium,,,20.0,-0.042803122325309445
4,55b237e6fdf99b19ea79d2f7,4.0,9.0,left,2.5295,10.8894,50.0,25.0,0.0,1.0,High,-0.20919368097824648,-25.0,-25.0,0.9280216547498538
5,55b237e6fdf99b19ea79d2f7,5.0,7.0,left,0.863,,20.0,,0.0,1.0,High,,,-25.0,-0.14734058789870913
6,55b237e6fdf99b19ea79d2f7,6.0,3.0,right,1.223,,50.0,,1.0,0.0,Low,,,-25.0,0.20130685670503537
7,55b237e6fdf99b19ea79d2f7,7.0,4.0,right,2.6694,,34.0,,1.0,0.0,Medium,,,-25.0,0.981853728057914
8,55b237e6fdf99b19ea79d2f7,8.0,7.0,left,0.9309,6.2051,50.0,25.0,0.0,1.0,High,-0.20919368097824648,-25.0,-25.0,-0.0716034188596929
9,55b237e6fdf99b19ea79d2f7,9.0,1.0,right,1.0502,,50.0,,1.0,0.0,Low,,,-25.0,0.04898062222162188
10,55b237e6fdf99b19ea79d2f7,10.0,7.0,left,0.8584,,50.0,,0.0,1.0,High,,,-25.0,-0.15268508766564828
11,55b237e6fdf99b19ea79d2f7,11.0,6.0,left,0.6134,,21.0,,0.0,1.0,Medium,,,-25.0,-0.48873802730198596
12,55b237e6fdf99b19ea79d2f7,12.0,6.0,left,0.8458,2.3984,34.0,29.0,0.0,1.0,Medium,0.4881185889492422,-5.0,-5.0,-0.16747235394374885
13,55b237e6fdf99b19ea79d2f7,13.0,2.0,right,1.1898,,50.0,,1.0,0.0,Low,,,-5.0,0.17378522577166822
14,55b237e6fdf99b19ea79d2f7,14.0,8.0,left,0.9249,,50.0,,0.0,1.0,High,,,-5.0,-0.07806965542192262
15,55b237e6fdf99b19ea79d2f7,15.0,5.0,left,0.976,3.1012,50.0,25.0,0.0,1.0,Medium,-0.20919368097824648,-25.0,-25.0,-0.024292692569044587
16,55b237e6fdf99b19ea79d2f7,16.0,4.0,right,0.9613,,17.0,,1.0,0.0,Medium,,,-25.0,-0.039468743910366526
17,55b237e6fdf99b19ea79d2f7,17.0,3.0,right,0.9908,3.2054,50.0,15.0,1.0,0.0,Low,-1.9524743557969682,-35.0,-35.0,-0.009242581366932545
18,55b237e6fdf99b19ea79d2f7,18.0,4.0,right,0.9258,,50.0,,1.0,0.0,Medium,,,-35.0,-0.07709705038496695
19,55b237e6fdf99b19ea79d2f7,19.0,5.0,left,0.7688,,50.0,,0.0,1.0,Medium,,,-35.0,-0.26292442132605426
20,55b237e6fdf99b19ea79d2f7,20.0,3.0,right,0.8283,3.66,32.0,27.0,1.0,0.0,Low,0.13946245398549786,-5.0,-5.0,-0.18837987137791856
21,55b237e6fdf99b19ea79d2f7,21.0,2.0,right,0.8009,,11.0,,1.0,0.0,Low,,,-5.0,-0.22201918365250053
22,55b237e6fdf99b19ea79d2f7,22.0,9.0,left,0.9111,,50.0,,0.0,1.0,High,,,-5.0,-0.09310261826232426
23,55b237e6fdf99b19ea79d2f7,23.0,4.0,right,1.1068,,50.0,,1.0,0.0,Medium,,,-5.0,0.10147296893063379
24,55b237e6fdf99b19ea79d2f7,24.0,8.0,left,0.825,3.7859,50.0,30.0,0.0,1.0,High,0.6624466564311143,-20.0,-20.0,-0.19237189264745613
25,55b237e6fdf99b19ea79d2f7,25.0,6.0,left,1.1732,,50.0,,0.0,1.0,Medium,,,-20.0,0.15973505812115893
26,55b237e6fdf99b19ea79d2f7,26.0,5.0,left,1.3249,2.4442,50.0,25.0,0.0,1.0,Medium,-0.20919368097824648,-25.0,-25.0,0.28133698489194037
27,55b237e6fdf99b19ea79d2f7,27.0,6.0,left,0.9431,,18.0,,0.0,1.0,Medium,,,-25.0,-0.05858295743229787
28,55b237e6fdf99b19ea79d2f7,28.0,8.0,left,0.8062,,6.0,,0.0,1.0,High,,,-25.0,-0.2154234282990716
29,55b237e6fdf99b19ea79d2f7,29.0,1.0,right,1.0622,2.7693,9.0,14.0,1.0,0.0,Low,-2.12680242327884,5.0,5.0,0.06034222900616176
30,55b237e6fdf99b19ea79d2f7,0.0,5.0,left,1.0182,,50.0,,0.0,1.0,Medium,,,5.0,0.018036362486098575
31,55b237e6fdf99b19ea79d2f7,1.0,4.0,right,1.3174,3.2176,50.0,25.0,1.0,0.0,Medium,-0.20919368097824648,-25.0,-25.0,0.27566009722445545
32,55b237e6fdf99b19ea79d2f7,2.0,3.0,right,0.8703,,29.0,,1.0,0.0,Low,,,-25.0,-0.13891729918666906
33,55b237e6fdf99b19ea79d2f7,3.0,5.0,left,0.8331,,30.0,,0.0,1.0,Medium,,,-25.0,-0.18260159600127354
34,55b237e6fdf99b19ea79d2f7,4.0,7.0,left,0.7151,4.0649,46.0,31.0,0.0,1.0,High,0.8367747239129865,-15.0,-15.0,-0.3353328859277869
35,55b237e6fdf99b19ea79d2f7,5.0,6.0,left,0.6135,,50.0,,0.0,1.0,Medium,,,-15.0,-0.48857501483117083
36,55b237e6fdf99b19ea79d2f7,6.0,1.0,right,0.5599,,35.0,,1.0,0.0,Low,,,-15.0,-0.5799970826272896
37,55b237e6fdf99b19ea79d2f7,7.0,6.0,left,0.9192,,50.0,,0.0,1.0,Medium,,,-15.0,-0.08425155244759111
38,55b237e6fdf99b19ea79d2f7,8.0,6.0,left,0.6777,2.5185,49.0,34.0,0.0,1.0,Medium,1.359758926358603,-15.0,-15.0,-0.38905056684006983
39,55b237e6fdf99b19ea79d2f7,9.0,9.0,left,0.8053,,8.0,,0.0,1.0,High,,,-15.0,-0.2165404001806378
40,55b237e6fdf99b19ea79d2f7,10.0,5.0,left,0.8298,,50.0,,0.0,1.0,Medium,,,-15.0,-0.18657057108336955
41,55b237e6fdf99b19ea79d2f7,11.0,5.0,left,0.8024,,23.0,,0.0,1.0,Medium,,,-15.0,-0.22014804233441126
42,55b237e6fdf99b19ea79d2f7,12.0,2.0,right,1.493,3.2176,50.0,20.0,1.0,0.0,Low,-1.0808340183876073,-30.0,-30.0,0.4007875185570534
43,55b237e6fdf99b19ea79d2f7,13.0,7.0,left,1.2265,,50.0,,0.0,1.0,High,,,-30.0,0.2041645847164069
44,55b237e6fdf99b19ea79d2f7,14.0,3.0,right,1.051,,46.0,,1.0,0.0,Low,,,-30.0,0.04974209189481401
45,55b237e6fdf99b19ea79d2f7,15.0,8.0,left,0.6831,3.0372,50.0,35.0,0.0,1.0,High,1.534086993840475,-15.0,-15.0,-0.38111401724433336
46,55b237e6fdf99b19ea79d2f7,16.0,5.0,left,1.1737,,50.0,,0.0,1.0,Medium,,,-15.0,0.16016115212394114
47,55b237e6fdf99b19ea79d2f7,17.0,7.0,left,0.585,7.3643,23.0,33.0,0.0,1.0,High,1.1854308588767308,10.0,10.0,-0.5361434317502807
48,55b237e6fdf99b19ea79d2f7,18.0,4.0,right,1.3828,,50.0,,1.0,0.0,Medium,,,10.0,0.32411042906533244
49,55b237e6fdf99b19ea79d2f7,19.0,2.0,right,1.1757,,38.0,,1.0,0.0,Low,,,10.0,0.16186371489155837
50,55b237e6fdf99b19ea79d2f7,20.0,2.0,right,0.7356,3.1024,15.0,20.0,1.0,0.0,Low,-1.0808340183876073,5.0,5.0,-0.307068786251971
51,55b237e6fdf99b19ea79d2f7,21.0,4.0,left,2.314,,22.0,,0.0,1.0,Medium,,,5.0,0.8389776287714849
52,55b237e6fdf99b19ea79d2f7,22.0,6.0,left,0.9194,,48.0,,0.0,1.0,Medium,,,5.0,-0.08403399561000945
53,55b237e6fdf99b19ea79d2f7,23.0,1.0,right,0.9064,,43.0,,1.0,0.0,Low,,,5.0,-0.09827456926834051
54,55b237e6fdf99b19ea79d2f7,24.0,9.0,left,0.7715,2.1857,47.0,27.0,0.0,1.0,High,0.13946245398549786,-20.0,-20.0,-0.25941860717892157
55,55b237e6fdf99b19ea79d2f7,25.0,8.0,left,0.7378,,50.0,,0.0,1.0,High,,,-20.0,-0.30408249381956176
56,55b237e6fdf99b19ea79d2f7,26.0,4.0,left,1.0364,2.9024,50.0,25.0,0.0,1.0,Medium,-0.20919368097824648,-25.0,-25.0,0.03575316970581784
57,55b237e6fdf99b19ea79d2f7,27.0,3.0,right,0.9121,,50.0,,1.0,0.0,Low,,,-25.0,-0.09200564579602429
58,55b237e6fdf99b19ea79d2f7,28.0,5.0,left,0.695,,27.0,,0.0,1.0,Medium,,,-25.0,-0.363843433417345
59,55b237e6fdf99b19ea79d2f7,29.0,8.0,left,0.5883,3.7661,17.0,32.0,0.0,1.0,High,1.0111027913948587,15.0,15.0,-0.5305182571117267
0,55b508f4fdf99b1c26c21c69,0.0,5.0,left,1.119,,50.0,,0.0,1.0,Medium,,,,0.11243542932978817
1,55b508f4fdf99b1c26c21c69,1.0,8.0,left,0.81,,26.0,,0.0,1.0,High,,,,-0.21072103131565253
2,55b508f4fdf99b1c26c21c69,2.0,5.0,left,0.523,3.629,9.0,19.0,0.0,1.0,Medium,0.20849903439023648,10.0,10.0,-0.6481738149172142
3,55b508f4fdf99b1c26c21c69,3.0,7.0,left,0.698,,35.0,,0.0,1.0,High,,,10.0,-0.35953617621976464
4,55b508f4fdf99b1c26c21c69,4.0,6.0,left,0.414,,25.0,,0.0,1.0,Medium,,,10.0,-0.8818893051568227
5,55b508f4fdf99b1c26c21c69,5.0,5.0,left,0.551,3.38,50.0,15.0,0.0,1.0,Medium,-0.40927588232157464,-35.0,-35.0,-0.5960204698292225
6,55b508f4fdf99b1c26c21c69,6.0,5.0,left,0.567,,50.0,,0.0,1.0,Medium,,,-35.0,-0.5673959752543851
7,55b508f4fdf99b1c26c21c69,7.0,2.0,left,0.442,2.672,50.0,5.0,0.0,1.0,Low,-1.9537131741011025,-45.0,-45.0,-0.816445396904439
8,55b508f4fdf99b1c26c21c69,8.0,6.0,left,0.631,,50.0,,0.0,1.0,Medium,,,-45.0,-0.4604494164409239
9,55b508f4fdf99b1c26c21c69,9.0,8.0,left,0.551,,50.0,,0.0,1.0,High,,,-45.0,-0.5960204698292225
10,55b508f4fdf99b1c26c21c69,10.0,9.0,left,0.587,,50.0,,0.0,1.0,High,,,-45.0,-0.5327304591540407
11,55b508f4fdf99b1c26c21c69,11.0,3.0,right,1.01,1.469,11.0,11.0,1.0,0.0,Low,-1.0270507990333857,0.0,0.0,0.009950330853168092
12,55b508f4fdf99b1c26c21c69,12.0,5.0,left,0.562,,40.0,,0.0,1.0,Medium,,,0.0,-0.5762534290884459
13,55b508f4fdf99b1c26c21c69,13.0,5.0,left,0.558,,50.0,,0.0,1.0,Medium,,,0.0,-0.583396316600826
14,55b508f4fdf99b1c26c21c69,14.0,1.0,right,0.75,2.46,50.0,10.0,1.0,0.0,Low,-1.1814945282113385,-40.0,-40.0,-0.2876820724517809
15,55b508f4fdf99b1c26c21c69,15.0,3.0,right,1.029,,31.0,,1.0,0.0,Low,,,-40.0,0.028587456851912472
16,55b508f4fdf99b1c26c21c69,16.0,6.0,left,0.576,,11.0,,0.0,1.0,Medium,,,-40.0,-0.5516476182862459
17,55b508f4fdf99b1c26c21c69,17.0,1.0,right,0.732,,25.0,,1.0,0.0,Low,,,-40.0,-0.3119747650208255
18,55b508f4fdf99b1c26c21c69,18.0,2.0,right,0.857,2.239,41.0,6.0,1.0,0.0,Low,-1.7992694449231497,-35.0,-35.0,-0.15431736038435728
19,55b508f4fdf99b1c26c21c69,19.0,4.0,left,0.63,,50.0,,0.0,1.0,Medium,,,-35.0,-0.4620354595965587
20,55b508f4fdf99b1c26c21c69,20.0,2.0,right,0.706,,50.0,,1.0,0.0,Low,,,-35.0,-0.34814004148889505
21,55b508f4fdf99b1c26c21c69,21.0,9.0,left,0.597,2.134,50.0,25.0,0.0,1.0,High,1.1351614094579532,-25.0,-25.0,-0.515838165589535
22,55b508f4fdf99b1c26c21c69,22.0,6.0,left,0.572,,50.0,,0.0,1.0,Medium,,,-25.0,-0.5586162876023393
23,55b508f4fdf99b1c26c21c69,23.0,3.0,right,0.812,,7.0,,1.0,0.0,Low,,,-25.0,-0.20825493882045903
24,55b508f4fdf99b1c26c21c69,24.0,4.0,left,1.507,,50.0,,0.0,1.0,Medium,,,-25.0,0.4101209196443583
25,55b508f4fdf99b1c26c21c69,25.0,7.0,left,0.53,1.578,50.0,20.0,0.0,1.0,High,0.3629427635681893,-30.0,-30.0,-0.6348782724359695
26,55b508f4fdf99b1c26c21c69,26.0,4.0,left,0.714,,29.0,,0.0,1.0,Medium,,,-30.0,-0.33687231664255274
27,55b508f4fdf99b1c26c21c69,27.0,8.0,left,0.498,1.864,50.0,20.0,0.0,1.0,High,0.3629427635681893,-30.0,-30.0,-0.6971552019574841
28,55b508f4fdf99b1c26c21c69,28.0,7.0,left,0.577,,23.0,,0.0,1.0,High,,,-30.0,-0.5499130124740376
29,55b508f4fdf99b1c26c21c69,29.0,4.0,left,0.727,2.123,30.0,15.0,0.0,1.0,Medium,-0.40927588232157464,-15.0,-15.0,-0.3188288014486177
30,55b508f4fdf99b1c26c21c69,0.0,5.0,left,0.579,,46.0,,0.0,1.0,Medium,,,-15.0,-0.5464528014091419
31,55b508f4fdf99b1c26c21c69,1.0,5.0,left,0.469,,50.0,,0.0,1.0,Medium,,,-15.0,-0.7571525105358577
32,55b508f4fdf99b1c26c21c69,2.0,6.0,left,0.564,1.819,50.0,20.0,0.0,1.0,Medium,0.3629427635681893,-30.0,-30.0,-0.5727010274840783
33,55b508f4fdf99b1c26c21c69,3.0,5.0,left,0.539,,50.0,,0.0,1.0,Medium,,,-30.0,-0.6180397080731398
34,55b508f4fdf99b1c26c21c69,4.0,6.0,left,0.569,,25.0,,0.0,1.0,Medium,,,-30.0,-0.5638748448558062
35,55b508f4fdf99b1c26c21c69,5.0,9.0,left,0.584,1.4,35.0,20.0,0.0,1.0,High,0.3629427635681893,-15.0,-15.0,-0.53785429615391
36,55b508f4fdf99b1c26c21c69,6.0,4.0,left,0.78,,50.0,,0.0,1.0,Medium,,,-15.0,-0.2484613592984996
37,55b508f4fdf99b1c26c21c69,7.0,4.0,left,0.561,2.297,47.0,17.0,0.0,1.0,Medium,-0.10038842396566909,-30.0,-30.0,-0.5780343734594406
38,55b508f4fdf99b1c26c21c69,8.0,5.0,left,0.567,,11.0,,0.0,1.0,Medium,,,-30.0,-0.5673959752543851
39,55b508f4fdf99b1c26c21c69,9.0,5.0,left,0.499,,50.0,,0.0,1.0,Medium,,,-30.0,-0.6951491832306184
40,55b508f4fdf99b1c26c21c69,10.0,7.0,left,0.548,,50.0,,0.0,1.0,High,,,-30.0,-0.6014799920341214
41,55b508f4fdf99b1c26c21c69,11.0,1.0,right,0.79,2.089,36.0,11.0,1.0,0.0,Low,-1.0270507990333857,-25.0,-25.0,-0.23572233352106983
42,55b508f4fdf99b1c26c21c69,12.0,5.0,left,0.588,,29.0,,0.0,1.0,Medium,,,-25.0,-0.5310283310835102
43,55b508f4fdf99b1c26c21c69,13.0,7.0,left,0.615,,18.0,,0.0,1.0,High,,,-25.0,-0.4861330111756192
44,55b508f4fdf99b1c26c21c69,14.0,9.0,left,0.576,1.389,27.0,17.0,0.0,1.0,High,-0.10038842396566909,-10.0,-10.0,-0.5516476182862459
45,55b508f4fdf99b1c26c21c69,15.0,1.0,right,0.72,,50.0,,1.0,0.0,Low,,,-10.0,-0.3285040669720361
46,55b508f4fdf99b1c26c21c69,16.0,3.0,right,1.0,,50.0,,1.0,0.0,Low,,,-10.0,0.0
47,55b508f4fdf99b1c26c21c69,17.0,8.0,left,0.541,,29.0,,0.0,1.0,High,,,-10.0,-0.6143360001356555
48,55b508f4fdf99b1c26c21c69,18.0,7.0,left,0.524,1.388,50.0,25.0,0.0,1.0,High,1.1351614094579532,-25.0,-25.0,-0.6462635946610948
49,55b508f4fdf99b1c26c21c69,19.0,4.0,left,0.603,,23.0,,0.0,1.0,Medium,,,-25.0,-0.5058380822549516
50,55b508f4fdf99b1c26c21c69,20.0,8.0,left,0.598,,23.0,,0.0,1.0,High,,,-25.0,-0.5141645250315053
51,55b508f4fdf99b1c26c21c69,21.0,6.0,left,0.548,1.139,39.0,24.0,0.0,1.0,Medium,0.9807176802800004,-15.0,-15.0,-0.6014799920341214
52,55b508f4fdf99b1c26c21c69,22.0,2.0,right,0.81,,50.0,,1.0,0.0,Low,,,-15.0,-0.21072103131565253
53,55b508f4fdf99b1c26c21c69,23.0,3.0,right,1.011,,50.0,,1.0,0.0,Low,,,-15.0,0.010939940038334263
54,55b508f4fdf99b1c26c21c69,24.0,2.0,right,0.742,,37.0,,1.0,0.0,Low,,,-15.0,-0.2984060358147566
55,55b508f4fdf99b1c26c21c69,25.0,8.0,left,0.681,1.473,50.0,25.0,0.0,1.0,High,1.1351614094579532,-25.0,-25.0,-0.3841929728326246
56,55b508f4fdf99b1c26c21c69,26.0,6.0,left,0.596,,50.0,,0.0,1.0,Medium,,,-25.0,-0.5175146119167874
57,55b508f4fdf99b1c26c21c69,27.0,3.0,right,0.745,1.567,8.0,28.0,1.0,0.0,Low,1.5984925969918116,20.0,20.0,-0.29437106060257756
58,55b508f4fdf99b1c26c21c69,28.0,4.0,left,0.671,,20.0,,0.0,1.0,Medium,,,20.0,-0.3989861420104552
59,55b508f4fdf99b1c26c21c69,29.0,2.0,right,0.643,1.99,50.0,20.0,1.0,0.0,Low,0.3629427635681893,-30.0,-30.0,-0.44161055474451766
0,55c694e3fdf99b6c4f28595f,0.0,5.0,left,1.1246,,49.0,,0.0,1.0,Medium,,,,0.11742741687596432
1,55c694e3fdf99b6c4f28595f,1.0,6.0,left,0.6142,,6.0,,0.0,1.0,Medium,,,,-0.4874346709754151
2,55c694e3fdf99b6c4f28595f,2.0,4.0,right,0.5425,3.7574,50.0,18.62244898,1.0,0.0,Medium,-0.3454965910380161,-31.37755102,-31.37755102,-0.6115671935675224
3,55c694e3fdf99b6c4f28595f,3.0,6.0,left,0.7891,,50.0,,0.0,1.0,Medium,,,-31.37755102,-0.2368622234551477
4,55c694e3fdf99b6c4f28595f,4.0,1.0,right,0.9205,,50.0,,1.0,0.0,Low,,,-31.37755102,-0.08283827830900452
5,55c694e3fdf99b6c4f28595f,5.0,9.0,left,0.5201,,50.0,,0.0,1.0,High,,,-31.37755102,-0.6537341782031103
6,55c694e3fdf99b6c4f28595f,6.0,4.0,right,0.5223,2.574,50.0,17.7957294,1.0,0.0,Medium,-0.4059584947194242,-32.2042706,-32.2042706,-0.649513143539884
7,55c694e3fdf99b6c4f28595f,7.0,6.0,left,0.7727,,11.0,,0.0,1.0,Medium,,,-32.2042706,-0.2578644040425988
8,55c694e3fdf99b6c4f28595f,8.0,5.0,left,0.765,,46.0,,0.0,1.0,Medium,,,-32.2042706,-0.2678794451556012
9,55c694e3fdf99b6c4f28595f,9.0,5.0,left,0.5869,2.5778,50.0,17.7957294,0.0,1.0,Medium,-0.4059584947194242,-32.2042706,-32.2042706,-0.5329008314178483
10,55c694e3fdf99b6c4f28595f,10.0,3.0,right,0.6009,,43.0,,1.0,0.0,Low,,,-32.2042706,-0.5093267476422548
11,55c694e3fdf99b6c4f28595f,11.0,8.0,left,0.5269,4.0142,50.0,39.2904384,0.0,1.0,High,1.166050995146404,-10.7095616,-10.7095616,-0.6407445017668969
12,55c694e3fdf99b6c4f28595f,12.0,4.0,right,0.608,,28.0,,1.0,0.0,Medium,,,-10.7095616,-0.49758039701597007
13,55c694e3fdf99b6c4f28595f,13.0,7.0,left,0.6162,,50.0,,0.0,1.0,High,,,-10.7095616,-0.4841836928195696
14,55c694e3fdf99b6c4f28595f,14.0,6.0,left,0.5047,,50.0,,0.0,1.0,Medium,,,-10.7095616,-0.6837910856359203
15,55c694e3fdf99b6c4f28595f,15.0,5.0,left,0.5687,2.6673,50.0,39.99905518,0.0,1.0,Medium,1.2178754838072259,-10.00094482,-10.00094482,-0.5644022246693831
16,55c694e3fdf99b6c4f28595f,16.0,2.0,right,1.207,,18.0,,1.0,0.0,Low,,,-10.00094482,0.1881379421153945
17,55c694e3fdf99b6c4f28595f,17.0,9.0,left,0.4453,2.8263,44.0,45.37273243,0.0,1.0,High,1.610877856273683,1.3727324299999992,1.3727324299999992,-0.8090070666544804
18,55c694e3fdf99b6c4f28595f,18.0,2.0,right,0.5759,,45.0,,1.0,0.0,Low,,,1.3727324299999992,-0.5518212444695104
19,55c694e3fdf99b6c4f28595f,19.0,3.0,right,0.4565,,50.0,,1.0,0.0,Low,,,1.3727324299999992,-0.7841665789471138
20,55c694e3fdf99b6c4f28595f,20.0,8.0,left,0.4811,4.6839,26.0,24.70474301,0.0,1.0,High,0.09933027008926282,-1.2952569899999986,-1.2952569899999986,-0.731680130276729
21,55c694e3fdf99b6c4f28595f,21.0,7.0,left,0.9469,,50.0,,0.0,1.0,High,,,-1.2952569899999986,-0.05456178799268267
22,55c694e3fdf99b6c4f28595f,22.0,4.0,right,0.5295,,28.0,,1.0,0.0,Medium,,,-1.2952569899999986,-0.635822113940676
23,55c694e3fdf99b6c4f28595f,23.0,8.0,left,0.5427,,16.0,,0.0,1.0,High,,,-1.2952569899999986,-0.611198597912778
24,55c694e3fdf99b6c4f28595f,24.0,1.0,right,0.5435,2.3739,35.0,10.47335601,1.0,0.0,Low,-0.9414782106374677,-24.52664399,-24.52664399,-0.609725572420873
25,55c694e3fdf99b6c4f28595f,25.0,2.0,right,0.9744,,45.0,,1.0,0.0,Low,,,-24.52664399,-0.02593338202650443
26,55c694e3fdf99b6c4f28595f,26.0,3.0,right,0.467,,50.0,,1.0,0.0,Low,,,-24.52664399,-0.7614260213132397
27,55c694e3fdf99b6c4f28595f,27.0,5.0,left,0.7365,2.3603,28.0,11.47722978,0.0,1.0,Medium,-0.8680601851565279,-16.522770219999998,-16.522770219999998,-0.305846043079452
28,55c694e3fdf99b6c4f28595f,28.0,5.0,left,0.5961,,28.0,,0.0,1.0,Medium,,,-16.522770219999998,-0.5173468407562563
29,55c694e3fdf99b6c4f28595f,29.0,7.0,left,0.5202,3.4805,50.0,25.0590514,0.0,1.0,High,0.12524251441967374,-24.9409486,-24.9409486,-0.6535419259675859
30,55c694e3fdf99b6c4f28595f,0.0,5.0,left,0.5188,,50.0,,0.0,1.0,Medium,,,-24.9409486,-0.6562368265398482
31,55c694e3fdf99b6c4f28595f,1.0,9.0,left,0.4806,,20.0,,0.0,1.0,High,,,-24.9409486,-0.7327199556797684
32,55c694e3fdf99b6c4f28595f,2.0,7.0,left,0.4969,3.5475,50.0,50.0,0.0,1.0,High,1.949291766980192,0.0,0.0,-0.6993664803738622
33,55c694e3fdf99b6c4f28595f,3.0,5.0,left,0.6693,,50.0,,0.0,1.0,Medium,,,0.0,-0.4015228888755405
34,55c694e3fdf99b6c4f28595f,4.0,8.0,left,0.4404,,13.0,,0.0,1.0,High,,,0.0,-0.8200718741336122
35,55c694e3fdf99b6c4f28595f,5.0,3.0,right,0.5228,,50.0,,1.0,0.0,Low,,,0.0,-0.6485562972320701
36,55c694e3fdf99b6c4f28595f,6.0,3.0,right,0.4326,2.2484,50.0,18.32719199,1.0,0.0,Low,-0.36709012785813416,-31.67280801,-31.67280801,-0.8379417654631787
37,55c694e3fdf99b6c4f28595f,7.0,5.0,left,0.5579,,50.0,,0.0,1.0,Medium,,,-31.67280801,-0.5835755441306545
38,55c694e3fdf99b6c4f28595f,8.0,2.0,right,0.4545,,29.0,,1.0,0.0,Low,,,-31.67280801,-0.7885573653646035
39,55c694e3fdf99b6c4f28595f,9.0,7.0,left,0.5464,2.1872,50.0,12.42205215,0.0,1.0,High,-0.7989608671858811,-37.57794785,-37.57794785,-0.6044039707255567
40,55c694e3fdf99b6c4f28595f,10.0,3.0,right,1.4024,,6.0,,1.0,0.0,Low,,,-37.57794785,0.33818505462488774
41,55c694e3fdf99b6c4f28595f,11.0,2.0,right,0.4966,2.4459,43.0,0.0,1.0,0.0,Low,-1.7074441531614306,,-37.57794785,-0.6999704059080708
42,55c694e3fdf99b6c4f28595f,12.0,5.0,left,0.56,,50.0,,0.0,1.0,Medium,,,-37.57794785,-0.579818495252942
43,55c694e3fdf99b6c4f28595f,13.0,4.0,right,0.5625,,38.0,,1.0,0.0,Medium,,,-37.57794785,-0.5753641449035618
44,55c694e3fdf99b6c4f28595f,14.0,6.0,left,0.4891,,50.0,,0.0,1.0,Medium,,,-37.57794785,-0.7151883114368256
45,55c694e3fdf99b6c4f28595f,15.0,8.0,left,0.4205,3.1741,16.0,12.54015495,0.0,1.0,High,-0.7903234521652952,-3.45984505,-3.45984505,-0.8663107995691344
46,55c694e3fdf99b6c4f28595f,16.0,5.0,left,0.7203,,45.0,,0.0,1.0,Medium,,,-3.45984505,-0.32808748708681973
47,55c694e3fdf99b6c4f28595f,17.0,4.0,right,0.5969,2.614,24.0,6.753117914,1.0,0.0,Medium,-1.2135567761799173,-17.246882086,-17.246882086,-0.5160056838075329
48,55c694e3fdf99b6c4f28595f,18.0,9.0,left,0.4899,,50.0,,0.0,1.0,High,,,-17.246882086,-0.7135539903376079
49,55c694e3fdf99b6c4f28595f,19.0,1.0,right,0.4811,,34.0,,1.0,0.0,Low,,,-17.246882086,-0.731680130276729
50,55c694e3fdf99b6c4f28595f,20.0,4.0,right,0.6147,2.1238,50.0,24.8228458,1.0,0.0,Medium,0.10796768437850154,-25.1771542,-25.1771542,-0.48662093506917325
51,55c694e3fdf99b6c4f28595f,21.0,6.0,left,0.5959,,50.0,,0.0,1.0,Medium,,,-25.1771542,-0.5176824112292039
52,55c694e3fdf99b6c4f28595f,22.0,1.0,right,0.4599,,20.0,,1.0,0.0,Low,,,-25.1771542,-0.776746204436259
53,55c694e3fdf99b6c4f28595f,23.0,2.0,right,0.4726,,50.0,,1.0,0.0,Low,,,-25.1771542,-0.7495059142293296
54,55c694e3fdf99b6c4f28595f,24.0,7.0,left,0.7048,1.7855,50.0,24.8228458,0.0,1.0,High,0.10796768437850154,-25.1771542,-25.1771542,-0.3498412043601673
55,55c694e3fdf99b6c4f28595f,25.0,4.0,right,1.1745,,50.0,,1.0,0.0,Medium,,,-25.1771542,0.1608425251168305
56,55c694e3fdf99b6c4f28595f,26.0,5.0,left,0.5717,,50.0,,0.0,1.0,Medium,,,-25.1771542,-0.5591409007122115
57,55c694e3fdf99b6c4f28595f,27.0,6.0,left,0.4537,1.821,37.0,24.8228458,0.0,1.0,Medium,0.10796768437850154,-12.1771542,-12.1771542,-0.7903190923122189
58,55c694e3fdf99b6c4f28595f,28.0,6.0,left,0.6234,,50.0,,0.0,1.0,Medium,,,-12.1771542,-0.4725669116489004
59,55c694e3fdf99b6c4f28595f,29.0,8.0,left,0.4539,2.3872,17.0,41.82964853,0.0,1.0,High,1.3517554129695737,24.82964853,24.82964853,-0.789878369519717
0,562563ceed6e5a000bc7f386,0.0,5.0,left,1.0126,,43.0,,0.0,1.0,Medium,,,,0.012521280553671691
1,562563ceed6e5a000bc7f386,1.0,5.0,left,0.4151,,47.0,,0.0,1.0,Medium,,,,-0.8792358239231439
2,562563ceed6e5a000bc7f386,2.0,6.0,left,0.3781,2.2361,12.0,22.75510204,0.0,1.0,Medium,-0.6133327959424081,10.75510204,10.75510204,-0.9725965680852499
3,562563ceed6e5a000bc7f386,3.0,8.0,left,1.0059,,38.0,,0.0,1.0,High,,,10.75510204,0.005882663158155512
4,562563ceed6e5a000bc7f386,4.0,5.0,left,0.6969,2.6746,50.0,22.75510204,0.0,1.0,Medium,-0.6133327959424081,-27.24489796,-27.24489796,-0.36111335053766397
5,562563ceed6e5a000bc7f386,5.0,7.0,left,0.5725,,8.0,,0.0,1.0,High,,,-27.24489796,-0.5577425435537423
6,562563ceed6e5a000bc7f386,6.0,4.0,left,0.5328,,6.0,,0.0,1.0,Medium,,,-27.24489796,-0.6296091597559575
7,562563ceed6e5a000bc7f386,7.0,8.0,left,0.3352,1.542,49.0,22.75510204,0.0,1.0,High,-0.6133327959424081,-26.24489796,-26.24489796,-1.093027910374209
8,562563ceed6e5a000bc7f386,8.0,4.0,left,0.5636,,50.0,,0.0,1.0,Medium,,,-26.24489796,-0.5734104989576119
9,562563ceed6e5a000bc7f386,9.0,3.0,left,0.4345,,50.0,,0.0,1.0,Low,,,-26.24489796,-0.8335593342766904
10,562563ceed6e5a000bc7f386,10.0,6.0,left,0.6558,,50.0,,0.0,1.0,Medium,,,-26.24489796,-0.4218994145715891
11,562563ceed6e5a000bc7f386,11.0,7.0,left,0.5078,2.1934,10.0,20.81632653,0.0,1.0,High,-2.044944970291644,10.816326530000001,10.816326530000001,-0.6776676097115589
12,562563ceed6e5a000bc7f386,12.0,2.0,left,0.3081,,50.0,,0.0,1.0,Low,,,10.816326530000001,-1.177330873379515
13,562563ceed6e5a000bc7f386,13.0,6.0,left,0.3107,,21.0,,0.0,1.0,Medium,,,10.816326530000001,-1.1689274625831354
14,562563ceed6e5a000bc7f386,14.0,7.0,left,0.5259,5.0271,46.0,23.26530612,0.0,1.0,High,-0.2365927512269405,-22.73469388,-22.73469388,-0.6426441983868385
15,562563ceed6e5a000bc7f386,15.0,5.0,left,0.6113,,50.0,,0.0,1.0,Medium,,,-22.73469388,-0.49216744194745743
16,562563ceed6e5a000bc7f386,16.0,2.0,left,0.5818,,50.0,,0.0,1.0,Low,,,-22.73469388,-0.5416285329210359
17,562563ceed6e5a000bc7f386,17.0,1.0,left,0.6061,1.5497,50.0,23.26530612,0.0,1.0,Low,-0.2365927512269405,-26.73469388,-26.73469388,-0.5007102900248978
18,562563ceed6e5a000bc7f386,18.0,3.0,left,0.5441,,50.0,,0.0,1.0,Low,,,-26.73469388,-0.6086222254902574
19,562563ceed6e5a000bc7f386,19.0,4.0,left,0.6611,,50.0,,0.0,1.0,Medium,,,-26.73469388,-0.4138501646426046
20,562563ceed6e5a000bc7f386,20.0,1.0,left,0.2829,,50.0,,0.0,1.0,Low,,,-26.73469388,-1.2626618006746155
21,562563ceed6e5a000bc7f386,21.0,9.0,left,0.5279,1.7028,13.0,23.06122449,0.0,1.0,High,-0.387288767636307,10.06122449,10.06122449,-0.6388484071525664
22,562563ceed6e5a000bc7f386,22.0,8.0,left,0.5476,,6.0,,0.0,1.0,High,,,10.06122449,-0.6022101855678432
23,562563ceed6e5a000bc7f386,23.0,4.0,left,0.4453,1.3939,37.0,23.06122449,0.0,1.0,Medium,-0.387288767636307,-13.93877551,-13.93877551,-0.8090070666544804
24,562563ceed6e5a000bc7f386,24.0,2.0,left,0.6943,,37.0,,0.0,1.0,Low,,,-13.93877551,-0.3648511352229093
25,562563ceed6e5a000bc7f386,25.0,3.0,left,0.3369,2.1166,7.0,22.85714286,0.0,1.0,Low,-0.5379847840456734,15.85714286,15.85714286,-1.08796912856963
26,562563ceed6e5a000bc7f386,26.0,6.0,left,0.5624,,29.0,,0.0,1.0,Medium,,,15.85714286,-0.5755419384856819
27,562563ceed6e5a000bc7f386,27.0,9.0,left,0.9624,,35.0,,0.0,1.0,High,,,15.85714286,-0.038325114321667894
28,562563ceed6e5a000bc7f386,28.0,5.0,left,0.5726,,50.0,,0.0,1.0,Medium,,,15.85714286,-0.5575678863181224
29,562563ceed6e5a000bc7f386,29.0,5.0,left,0.3449,0.74,50.0,22.65306122,0.0,1.0,Medium,-0.6886808078391428,-27.34693878,-27.34693878,-1.0645007590393418
30,562563ceed6e5a000bc7f386,0.0,5.0,left,0.5441,,50.0,,0.0,1.0,Medium,,,-27.34693878,-0.6086222254902574
31,562563ceed6e5a000bc7f386,1.0,6.0,left,0.2969,,50.0,,0.0,1.0,Medium,,,-27.34693878,-1.214359897212423
32,562563ceed6e5a000bc7f386,2.0,6.0,left,0.2972,2.3238,26.0,21.0,0.0,1.0,Medium,-1.9093185533079846,-5.0,-5.0,-1.213349966138533
33,562563ceed6e5a000bc7f386,3.0,5.0,left,0.4267,,50.0,,0.0,1.0,Medium,,,-5.0,-0.8516740887881827
34,562563ceed6e5a000bc7f386,4.0,2.0,left,0.7105,1.2654,13.0,23.87755102,0.0,1.0,Low,0.21549530538525916,10.877551019999999,10.877551019999999,-0.3417863314449817
35,562563ceed6e5a000bc7f386,5.0,5.0,left,0.3449,,23.0,,0.0,1.0,Medium,,,10.877551019999999,-1.0645007590393418
36,562563ceed6e5a000bc7f386,6.0,6.0,left,0.3285,,13.0,,0.0,1.0,Medium,,,10.877551019999999,-1.1132184410574717
37,562563ceed6e5a000bc7f386,7.0,3.0,left,0.4279,1.2137,50.0,23.87755102,0.0,1.0,Low,0.21549530538525916,-26.12244898,-26.12244898,-0.8488657555593659
38,562563ceed6e5a000bc7f386,8.0,5.0,left,0.476,,10.0,,0.0,1.0,Medium,,,-26.12244898,-0.7423374247507171
39,562563ceed6e5a000bc7f386,9.0,1.0,left,0.4502,,47.0,,0.0,1.0,Low,,,-26.12244898,-0.7980633505095052
40,562563ceed6e5a000bc7f386,10.0,3.0,left,3.8108,,36.0,,0.0,1.0,Low,,,-26.12244898,1.3378391408504873
41,562563ceed6e5a000bc7f386,11.0,1.0,left,4.4202,4.5741,50.0,25.10204082,0.0,1.0,Low,1.1196714186096637,-24.89795918,-24.89795918,1.486184943934686
42,562563ceed6e5a000bc7f386,12.0,2.0,left,0.6443,,9.0,,0.0,1.0,Low,,,-24.89795918,-0.4395908228375403
43,562563ceed6e5a000bc7f386,13.0,6.0,left,0.6012,,42.0,,0.0,1.0,Medium,,,-24.89795918,-0.5088276211033177
44,562563ceed6e5a000bc7f386,14.0,5.0,left,0.6129,1.2503,50.0,25.10204082,0.0,1.0,Medium,1.1196714186096637,-24.89795918,-24.89795918,-0.489553488490451
45,562563ceed6e5a000bc7f386,15.0,4.0,left,1.0806,,29.0,,0.0,1.0,Medium,,,-24.89795918,0.07751644242782835
46,562563ceed6e5a000bc7f386,16.0,3.0,left,0.7858,,50.0,,0.0,1.0,Low,,,-24.89795918,-0.2410529718577776
47,562563ceed6e5a000bc7f386,17.0,9.0,left,0.8485,2.9814,22.0,25.10204082,0.0,1.0,High,1.1196714186096637,3.102040819999999,3.102040819999999,-0.16428519430785601
48,562563ceed6e5a000bc7f386,18.0,7.0,left,0.5993,,47.0,,0.0,1.0,High,,,3.102040819999999,-0.5119929715179974
49,562563ceed6e5a000bc7f386,19.0,2.0,left,0.7692,,23.0,,0.0,1.0,Low,,,3.102040819999999,-0.26240426526751237
50,562563ceed6e5a000bc7f386,20.0,8.0,left,1.8521,,50.0,,0.0,1.0,High,,,3.102040819999999,0.6163201304466189
51,562563ceed6e5a000bc7f386,21.0,8.0,left,0.4761,1.1272,50.0,25.10204082,0.0,1.0,High,1.1196714186096637,-24.89795918,-24.89795918,-0.7421273627816639
52,562563ceed6e5a000bc7f386,22.0,4.0,left,0.5273,,21.0,,0.0,1.0,Medium,,,-24.89795918,-0.6399856324457129
53,562563ceed6e5a000bc7f386,23.0,4.0,left,3.4008,2.3832,49.0,25.10204082,0.0,1.0,Medium,1.1196714186096637,-23.89795918,-23.89795918,1.2240106980624432
54,562563ceed6e5a000bc7f386,24.0,7.0,left,0.6291,,33.0,,0.0,1.0,High,,,-23.89795918,-0.4634650524061531
55,562563ceed6e5a000bc7f386,25.0,9.0,left,0.4962,1.3323,50.0,25.10204082,0.0,1.0,High,1.1196714186096637,-24.89795918,-24.89795918,-0.7007762077244365
56,562563ceed6e5a000bc7f386,26.0,8.0,left,0.7771,,40.0,,0.0,1.0,High,,,-24.89795918,-0.2521862367669405
57,562563ceed6e5a000bc7f386,27.0,7.0,left,0.5001,,50.0,,0.0,1.0,High,,,-24.89795918,-0.6929472005572791
58,562563ceed6e5a000bc7f386,28.0,5.0,left,0.799,,50.0,,0.0,1.0,Medium,,,-24.89795918,-0.22439433321586233
59,562563ceed6e5a000bc7f386,29.0,4.0,left,0.5225,1.0788,24.0,25.10204082,0.0,1.0,Medium,1.1196714186096637,1.1020408199999991,1.1020408199999991,-0.649130295143171
0,567dd32b4f0ef30006dbb718,0.0,5.0,right,3.772,,40.0,,1.0,0.0,Medium,,,,1.327605364771211
1,567dd32b4f0ef30006dbb718,1.0,8.0,left,3.745,,50.0,,0.0,1.0,High,,,,1.320421616969183
2,567dd32b4f0ef30006dbb718,2.0,4.0,right,1.233,,18.0,,1.0,0.0,Medium,,,,0.20945022418220732
3,567dd32b4f0ef30006dbb718,3.0,6.0,left,2.132,7.027,19.0,24.93768816,0.0,1.0,Medium,-0.5168105589469077,5.93768816,5.93768816,0.7570605063035981
4,567dd32b4f0ef30006dbb718,4.0,3.0,right,2.051,,10.0,,1.0,0.0,Low,,,5.93768816,0.7183274790902436
5,567dd32b4f0ef30006dbb718,5.0,5.0,right,2.406,8.914,50.0,25.24923787,1.0,0.0,Medium,0.23949758616287722,-24.75076213,-24.75076213,0.8779656175524871
6,567dd32b4f0ef30006dbb718,6.0,5.0,right,2.27,,34.0,,1.0,0.0,Medium,,,-24.75076213,0.8197798314933114
7,567dd32b4f0ef30006dbb718,7.0,2.0,right,1.655,,50.0,,1.0,0.0,Low,,,-24.75076213,0.5038010088290262
8,567dd32b4f0ef30006dbb718,8.0,8.0,left,1.393,12.481,50.0,25.87233728,0.0,1.0,High,1.7521138521067552,-24.12766272,-24.12766272,0.3314596947976687
9,567dd32b4f0ef30006dbb718,9.0,5.0,right,2.281,,46.0,,1.0,0.0,Medium,,,-24.12766272,0.824613943302251
10,567dd32b4f0ef30006dbb718,10.0,3.0,right,2.159,,50.0,,1.0,0.0,Low,,,-24.12766272,0.7696451515326702
11,567dd32b4f0ef30006dbb718,11.0,1.0,right,1.431,,50.0,,1.0,0.0,Low,,,-24.12766272,0.3583735005743139
12,567dd32b4f0ef30006dbb718,12.0,7.0,left,1.432,4.504,50.0,24.52228855,0.0,1.0,High,-1.5252214110013933,-25.47771145,-25.47771145,0.3590720685384538
13,567dd32b4f0ef30006dbb718,13.0,6.0,left,1.833,,50.0,,0.0,1.0,Medium,,,-25.47771145,0.6059539688575679
14,567dd32b4f0ef30006dbb718,14.0,2.0,right,1.376,,50.0,,1.0,0.0,Low,,,-25.47771145,0.31918073951115183
15,567dd32b4f0ef30006dbb718,15.0,7.0,left,1.393,3.735,19.0,25.35308777,0.0,1.0,High,0.49160029310756914,6.353087769999998,6.353087769999998,0.3314596947976687
16,567dd32b4f0ef30006dbb718,16.0,8.0,left,2.066,,9.0,,0.0,1.0,High,,,6.353087769999998,0.7256143706974467
17,567dd32b4f0ef30006dbb718,17.0,5.0,right,1.151,,50.0,,1.0,0.0,Medium,,,6.353087769999998,0.14063112973974562
18,567dd32b4f0ef30006dbb718,18.0,1.0,right,1.675,5.314,50.0,25.04153806,1.0,0.0,Low,-0.26470785200220714,-24.95846194,-24.95846194,0.5158131652770298
19,567dd32b4f0ef30006dbb718,19.0,4.0,right,2.418,,50.0,,1.0,0.0,Medium,,,-24.95846194,0.882940752192601
20,567dd32b4f0ef30006dbb718,20.0,4.0,right,2.3,,50.0,,1.0,0.0,Medium,,,-24.95846194,0.8329091229351039
21,567dd32b4f0ef30006dbb718,21.0,2.0,right,1.111,2.365,50.0,25.04153806,1.0,0.0,Low,-0.26470785200220714,-24.95846194,-24.95846194,0.10526051065749294
22,567dd32b4f0ef30006dbb718,22.0,6.0,left,2.792,,50.0,,0.0,1.0,Medium,,,-24.95846194,1.026758184900126
23,567dd32b4f0ef30006dbb718,23.0,6.0,left,1.187,2.948,50.0,25.04153806,0.0,1.0,Medium,-0.26470785200220714,-24.95846194,-24.95846194,0.17142911562753102
24,567dd32b4f0ef30006dbb718,24.0,5.0,right,2.184,,50.0,,1.0,0.0,Medium,,,-24.95846194,0.7811580578826587
25,567dd32b4f0ef30006dbb718,25.0,9.0,left,3.747,2.855,50.0,25.04153806,0.0,1.0,High,-0.26470785200220714,-24.95846194,-24.95846194,1.3209555198115503
26,567dd32b4f0ef30006dbb718,26.0,7.0,left,1.283,,29.0,,0.0,1.0,High,,,-24.95846194,0.24920108563349933
27,567dd32b4f0ef30006dbb718,27.0,9.0,left,1.474,,36.0,,0.0,1.0,High,,,-24.95846194,0.38797979376714486
28,567dd32b4f0ef30006dbb718,28.0,3.0,right,0.999,,50.0,,1.0,0.0,Low,,,-24.95846194,-0.0010005003335835344
29,567dd32b4f0ef30006dbb718,29.0,4.0,right,4.208,2.829,46.0,25.04153806,1.0,0.0,Medium,-0.26470785200220714,-20.95846194,-20.95846194,1.4369874754354088
30,567dd32b4f0ef30006dbb718,0.0,5.0,right,1.893,,25.0,,1.0,0.0,Medium,,,-20.95846194,0.6381628722271858
31,567dd32b4f0ef30006dbb718,1.0,6.0,left,2.006,,30.0,,0.0,1.0,Medium,,,-20.95846194,0.6961426895397437
32,567dd32b4f0ef30006dbb718,2.0,7.0,left,1.275,,23.0,,0.0,1.0,High,,,-20.95846194,0.2429461786103894
33,567dd32b4f0ef30006dbb718,3.0,2.0,right,1.267,4.531,40.0,24.72998835,1.0,0.0,Low,-1.021015997111992,-15.27001165,-15.27001165,0.23665190133900194
34,567dd32b4f0ef30006dbb718,4.0,6.0,left,2.042,,6.0,,0.0,1.0,Medium,,,-15.27001165,0.7139297197424738
35,567dd32b4f0ef30006dbb718,5.0,8.0,left,1.4,3.249,23.0,24.72998835,0.0,1.0,High,-1.021015997111992,1.7299883499999993,1.7299883499999993,0.3364722366212129
36,567dd32b4f0ef30006dbb718,6.0,2.0,right,1.418,,50.0,,1.0,0.0,Low,,,1.7299883499999993,0.3492474281099357
37,567dd32b4f0ef30006dbb718,7.0,6.0,left,2.992,,50.0,,0.0,1.0,Medium,,,1.7299883499999993,1.0959420601122307
38,567dd32b4f0ef30006dbb718,8.0,3.0,right,1.454,3.406,50.0,24.72998835,1.0,0.0,Low,-1.021015997111992,-25.27001165,-25.27001165,0.3743183791113276
39,567dd32b4f0ef30006dbb718,9.0,9.0,left,2.618,,50.0,,0.0,1.0,High,,,-25.27001165,0.9624106674877081
40,567dd32b4f0ef30006dbb718,10.0,2.0,right,1.829,,38.0,,1.0,0.0,Low,,,-25.27001165,0.6037693694087286
41,567dd32b4f0ef30006dbb718,11.0,9.0,left,1.327,,50.0,,0.0,1.0,High,,,-25.27001165,0.28292075535007044
42,567dd32b4f0ef30006dbb718,12.0,1.0,right,5.788,3.398,34.0,24.72998835,1.0,0.0,Low,-1.021015997111992,-9.27001165,-9.27001165,1.7557868087692374
43,567dd32b4f0ef30006dbb718,13.0,7.0,left,1.982,,50.0,,0.0,1.0,High,,,-9.27001165,0.6841064359077962
44,567dd32b4f0ef30006dbb718,14.0,7.0,left,1.039,,47.0,,0.0,1.0,High,,,-9.27001165,0.03825871211709027
45,567dd32b4f0ef30006dbb718,15.0,1.0,right,2.776,2.522,50.0,24.72998835,1.0,0.0,Low,-1.021015997111992,-25.27001165,-25.27001165,1.021011042644558
46,567dd32b4f0ef30006dbb718,16.0,5.0,right,1.669,,8.0,,1.0,0.0,Medium,,,-25.27001165,0.5122246446796981
47,567dd32b4f0ef30006dbb718,17.0,4.0,right,2.634,,45.0,,1.0,0.0,Medium,,,-25.27001165,0.9685036033210893
48,567dd32b4f0ef30006dbb718,18.0,6.0,left,1.351,3.839,6.0,25.76848738,0.0,1.0,Medium,1.5000111451620546,19.76848738,19.76848738,0.3008450589780618
49,567dd32b4f0ef30006dbb718,19.0,5.0,right,1.837,,26.0,,1.0,0.0,Medium,,,19.76848738,0.6081338062329886
50,567dd32b4f0ef30006dbb718,20.0,5.0,right,1.419,,47.0,,1.0,0.0,Medium,,,19.76848738,0.34995239817790563
51,567dd32b4f0ef30006dbb718,21.0,4.0,right,1.013,2.015,50.0,25.76848738,1.0,0.0,Medium,1.5000111451620546,-24.23151262,-24.23151262,0.01291622526654623
52,567dd32b4f0ef30006dbb718,22.0,4.0,right,1.869,,50.0,,1.0,0.0,Medium,,,-24.23151262,0.6254035284734257
53,567dd32b4f0ef30006dbb718,23.0,3.0,right,2.73,2.91,50.0,25.56078758,1.0,0.0,Low,0.9958057312726535,-24.43921242,-24.43921242,1.0043016091968684
54,567dd32b4f0ef30006dbb718,24.0,8.0,left,1.256,,25.0,,0.0,1.0,High,,,-24.43921242,0.22793206804600694
55,567dd32b4f0ef30006dbb718,25.0,5.0,right,2.719,2.832,50.0,25.56078758,1.0,0.0,Medium,0.9958057312726535,-24.43921242,-24.43921242,1.0002641656503337
56,567dd32b4f0ef30006dbb718,26.0,8.0,left,1.272,,32.0,,0.0,1.0,High,,,-24.43921242,0.24059046491793043
57,567dd32b4f0ef30006dbb718,27.0,4.0,right,1.186,,39.0,,1.0,0.0,Medium,,,-24.43921242,0.17058630057553367
58,567dd32b4f0ef30006dbb718,28.0,5.0,right,2.87,,25.0,,1.0,0.0,Medium,,,-24.43921242,1.0543120297715298
59,567dd32b4f0ef30006dbb718,29.0,3.0,right,1.253,2.264,42.0,25.56078758,1.0,0.0,Low,0.9958057312726535,-16.43921242,-16.43921242,0.22554067591393115
0,568d286ab5a2c2000cb6a91c,0.0,5.0,left,0.6159,,50.0,,0.0,1.0,Medium,,,,-0.48467066628913946
1,568d286ab5a2c2000cb6a91c,1.0,1.0,left,1.1344,,50.0,,0.0,1.0,Low,,,,0.12610387679572607
2,568d286ab5a2c2000cb6a91c,2.0,8.0,left,0.504,4.2822,50.0,30.0,0.0,1.0,High,-0.6391314469241417,-20.0,-20.0,-0.6851790109107684
3,568d286ab5a2c2000cb6a91c,3.0,6.0,left,0.7811,,50.0,,0.0,1.0,Medium,,,-20.0,-0.2470520963658854
4,568d286ab5a2c2000cb6a91c,4.0,4.0,left,2.3131,,33.0,,0.0,1.0,Medium,,,-20.0,0.8385886162101182
5,568d286ab5a2c2000cb6a91c,5.0,2.0,left,1.0097,,50.0,,0.0,1.0,Low,,,-20.0,0.009653257028138346
6,568d286ab5a2c2000cb6a91c,6.0,8.0,left,0.6036,1.3125,50.0,35.0,0.0,1.0,High,-0.012531989155375501,-15.0,-15.0,-0.5048435520884432
7,568d286ab5a2c2000cb6a91c,7.0,2.0,left,1.5297,,50.0,,0.0,1.0,Low,,,-15.0,0.42507163774708273
8,568d286ab5a2c2000cb6a91c,8.0,5.0,left,0.6667,4.1142,7.0,22.0,0.0,1.0,Medium,-1.6416905793541676,15.0,15.0,-0.4054151093581228
9,568d286ab5a2c2000cb6a91c,9.0,5.0,left,0.6487,,42.0,,0.0,1.0,Medium,,,15.0,-0.43278491876312725
10,568d286ab5a2c2000cb6a91c,10.0,7.0,left,0.5605,2.586,50.0,35.0,0.0,1.0,High,-0.012531989155375501,-15.0,-15.0,-0.5789260364699225
11,568d286ab5a2c2000cb6a91c,11.0,7.0,left,0.94,,24.0,,0.0,1.0,High,,,-15.0,-0.06187540371808753
12,568d286ab5a2c2000cb6a91c,12.0,3.0,left,0.9811,,43.0,,0.0,1.0,Low,,,-15.0,-0.019080887812791953
13,568d286ab5a2c2000cb6a91c,13.0,8.0,left,0.6436,2.1966,32.0,37.0,0.0,1.0,High,0.23810779395213097,5.0,5.0,-0.440677863863909
14,568d286ab5a2c2000cb6a91c,14.0,1.0,right,0.969,,29.0,,1.0,0.0,Low,,,5.0,-0.03149066709137085
15,568d286ab5a2c2000cb6a91c,15.0,7.0,left,0.5634,,30.0,,0.0,1.0,High,,,5.0,-0.5737654235398648
16,568d286ab5a2c2000cb6a91c,16.0,6.0,left,0.5797,2.522,32.0,27.0,0.0,1.0,Medium,-1.0150911215854013,-5.0,-5.0,-0.5452445506364498
17,568d286ab5a2c2000cb6a91c,17.0,9.0,left,1.0302,,41.0,,0.0,1.0,High,,,-5.0,0.0297529581493478
18,568d286ab5a2c2000cb6a91c,18.0,6.0,left,0.5903,2.9157,13.0,38.0,0.0,1.0,Medium,0.3634276855058842,25.0,25.0,-0.5271243967354933
19,568d286ab5a2c2000cb6a91c,19.0,9.0,left,0.6112,,50.0,,0.0,1.0,High,,,25.0,-0.4923310411298264
20,568d286ab5a2c2000cb6a91c,20.0,5.0,left,0.5634,,38.0,,0.0,1.0,Medium,,,25.0,-0.5737654235398648
21,568d286ab5a2c2000cb6a91c,21.0,4.0,left,0.9441,,47.0,,0.0,1.0,Medium,,,25.0,-0.057523186243666126
22,568d286ab5a2c2000cb6a91c,22.0,4.0,left,0.6307,1.6637,50.0,35.0,0.0,1.0,Medium,-0.012531989155375501,-15.0,-15.0,-0.46092496531253146
23,568d286ab5a2c2000cb6a91c,23.0,5.0,left,0.6716,,27.0,,0.0,1.0,Medium,,,-15.0,-0.39809235377875135
24,568d286ab5a2c2000cb6a91c,24.0,6.0,left,0.5936,,50.0,,0.0,1.0,Medium,,,-15.0,-0.5215495871289664
25,568d286ab5a2c2000cb6a91c,25.0,5.0,left,0.7408,2.1054,50.0,35.0,0.0,1.0,Medium,-0.012531989155375501,-15.0,-15.0,-0.3000245956501674
26,568d286ab5a2c2000cb6a91c,26.0,2.0,left,0.9445,,50.0,,0.0,1.0,Low,,,-15.0,-0.0570995920405728
27,568d286ab5a2c2000cb6a91c,27.0,4.0,left,0.7188,,17.0,,0.0,1.0,Medium,,,-15.0,-0.3301721240727331
28,568d286ab5a2c2000cb6a91c,28.0,3.0,left,0.842,,35.0,,0.0,1.0,Low,,,-15.0,-0.17197526473981037
29,568d286ab5a2c2000cb6a91c,29.0,3.0,left,1.0031,2.5321,50.0,30.0,0.0,1.0,Low,-0.6391314469241417,-20.0,-20.0,0.0030952049073025216
30,568d286ab5a2c2000cb6a91c,0.0,5.0,left,0.6351,,50.0,,0.0,1.0,Medium,,,-20.0,-0.4539728121732079
31,568d286ab5a2c2000cb6a91c,1.0,5.0,left,0.5133,,50.0,,0.0,1.0,Medium,,,-20.0,-0.6668948094158796
32,568d286ab5a2c2000cb6a91c,2.0,6.0,left,0.6373,2.1674,37.0,32.0,0.0,1.0,Medium,-0.3884916638166352,-5.0,-5.0,-0.45051477666188866
33,568d286ab5a2c2000cb6a91c,3.0,3.0,left,0.9704,,10.0,,0.0,1.0,Low,,,-5.0,-0.030046921352296637
34,568d286ab5a2c2000cb6a91c,4.0,4.0,left,0.5112,,21.0,,0.0,1.0,Medium,,,-5.0,-0.6709943759188121
35,568d286ab5a2c2000cb6a91c,5.0,5.0,left,0.4478,,50.0,,0.0,1.0,Medium,,,-5.0,-0.8034085748174826
36,568d286ab5a2c2000cb6a91c,6.0,5.0,left,1.2865,2.8209,50.0,40.0,0.0,1.0,Medium,0.6140674686133907,-10.0,-10.0,0.25192535273966177
37,568d286ab5a2c2000cb6a91c,7.0,2.0,left,4.35,,10.0,,0.0,1.0,Low,,,-10.0,1.4701758451005926
38,568d286ab5a2c2000cb6a91c,8.0,7.0,left,0.7288,2.3979,50.0,35.0,0.0,1.0,High,-0.012531989155375501,-15.0,-15.0,-0.3163559330363885
39,568d286ab5a2c2000cb6a91c,9.0,1.0,right,0.7518,,43.0,,1.0,0.0,Low,,,-15.0,-0.2852849478520594
40,568d286ab5a2c2000cb6a91c,10.0,2.0,left,0.9453,3.2033,50.0,20.0,0.0,1.0,Low,-1.892330362461674,-30.0,-30.0,-0.05625294155079841
41,568d286ab5a2c2000cb6a91c,11.0,5.0,left,0.6287,,50.0,,0.0,1.0,Medium,,,-30.0,-0.4641010835931216
42,568d286ab5a2c2000cb6a91c,12.0,3.0,left,0.7114,,50.0,,0.0,1.0,Low,,,-30.0,-0.34052041946778216
43,568d286ab5a2c2000cb6a91c,13.0,1.0,right,1.1773,2.8152,50.0,25.0,1.0,0.0,Low,-1.265730904692908,-25.0,-25.0,0.16322368110201407
44,568d286ab5a2c2000cb6a91c,14.0,7.0,left,0.7667,,50.0,,0.0,1.0,High,,,-25.0,-0.26565968841728826
45,568d286ab5a2c2000cb6a91c,15.0,6.0,left,0.6827,,50.0,,0.0,1.0,Medium,,,-25.0,-0.38169975455790245
46,568d286ab5a2c2000cb6a91c,16.0,9.0,left,0.7458,1.3394,47.0,42.0,0.0,1.0,High,0.8647072517208971,-5.0,-5.0,-0.2932978112374166
47,568d286ab5a2c2000cb6a91c,17.0,4.0,left,0.7436,,50.0,,0.0,1.0,Medium,,,-5.0,-0.29625202313484805
48,568d286ab5a2c2000cb6a91c,18.0,8.0,left,0.6173,2.5479,50.0,50.0,0.0,1.0,High,1.867266384150923,0.0,0.0,-0.48240014958228694
49,568d286ab5a2c2000cb6a91c,19.0,6.0,left,0.6325,,50.0,,0.0,1.0,Medium,,,0.0,-0.4580750583804618
50,568d286ab5a2c2000cb6a91c,20.0,4.0,left,0.6837,,50.0,,0.0,1.0,Medium,,,0.0,-0.3802360540623888
51,568d286ab5a2c2000cb6a91c,21.0,4.0,left,0.6643,,38.0,,0.0,1.0,Medium,,,0.0,-0.4090214243109416
52,568d286ab5a2c2000cb6a91c,22.0,6.0,left,0.768,2.1493,28.0,45.0,0.0,1.0,Medium,1.2406669263821568,17.0,17.0,-0.26396554583446485
53,568d286ab5a2c2000cb6a91c,23.0,3.0,left,0.7949,,48.0,,0.0,1.0,Low,,,17.0,-0.22953895840307004
54,568d286ab5a2c2000cb6a91c,24.0,7.0,left,0.6296,,50.0,,0.0,1.0,High,,,17.0,-0.4626705818789435
55,568d286ab5a2c2000cb6a91c,25.0,9.0,left,0.6555,1.097,49.0,44.0,0.0,1.0,High,1.1153470348284036,-5.0,-5.0,-0.42235697577838255
56,568d286ab5a2c2000cb6a91c,26.0,2.0,left,1.0906,,50.0,,0.0,1.0,Low,,,-5.0,0.08672800350982415
57,568d286ab5a2c2000cb6a91c,27.0,8.0,left,0.7128,,50.0,,0.0,1.0,High,,,-5.0,-0.3385544028255375
58,568d286ab5a2c2000cb6a91c,28.0,8.0,left,1.2329,,30.0,,0.0,1.0,High,,,-5.0,0.2093691178923701
59,568d286ab5a2c2000cb6a91c,29.0,5.0,left,0.6136,2.3808,40.0,45.0,0.0,1.0,Medium,1.2406669263821568,5.0,5.0,-0.4884120289290906
0,56d39b96da2aaa000dab6178,0.0,5.0,left,1.255,,7.0,,0.0,1.0,Medium,,,,0.22713557258374711
1,56d39b96da2aaa000dab6178,1.0,6.0,left,0.9818,,50.0,,0.0,1.0,Medium,,,,-0.01836765735818493
2,56d39b96da2aaa000dab6178,2.0,7.0,left,0.6258,,50.0,,0.0,1.0,High,,,,-0.4687244477473553
3,56d39b96da2aaa000dab6178,3.0,9.0,left,0.9286,4.5612,50.0,35.0,0.0,1.0,High,0.6407915501484773,-15.0,-15.0,-0.07407720339631574
4,56d39b96da2aaa000dab6178,4.0,6.0,left,0.7551,,50.0,,0.0,1.0,Medium,,,-15.0,-0.28090508817275717
5,56d39b96da2aaa000dab6178,5.0,9.0,left,0.696,,50.0,,0.0,1.0,High,,,-15.0,-0.3624056186477175
6,56d39b96da2aaa000dab6178,6.0,5.0,left,0.9236,,41.0,,0.0,1.0,Medium,,,-15.0,-0.07947620150179678
7,56d39b96da2aaa000dab6178,7.0,8.0,left,0.6494,1.835,16.0,36.0,0.0,1.0,High,0.8872498386671224,20.0,20.0,-0.4317064193133915
8,56d39b96da2aaa000dab6178,8.0,4.0,right,1.1174,,50.0,,1.0,0.0,Medium,,,20.0,0.1110045580429113
9,56d39b96da2aaa000dab6178,9.0,5.0,left,0.7523,,50.0,,0.0,1.0,Medium,,,20.0,-0.2846200984159612
10,56d39b96da2aaa000dab6178,10.0,7.0,left,0.6474,,50.0,,0.0,1.0,High,,,20.0,-0.4347909374899931
11,56d39b96da2aaa000dab6178,11.0,8.0,left,0.6278,2.3485,6.0,36.0,0.0,1.0,High,0.8872498386671224,30.0,30.0,-0.4655336345742838
12,56d39b96da2aaa000dab6178,12.0,2.0,left,3.5641,,50.0,,0.0,1.0,Low,,,30.0,1.270911567576326
13,56d39b96da2aaa000dab6178,13.0,4.0,left,0.6362,,50.0,,0.0,1.0,Medium,,,30.0,-0.45224229966709334
14,56d39b96da2aaa000dab6178,14.0,6.0,left,0.6176,1.8751,43.0,28.0,0.0,1.0,Medium,-1.0844164694820377,-15.0,-15.0,-0.48191428027157057
15,56d39b96da2aaa000dab6178,15.0,7.0,left,0.5527,,9.0,,0.0,1.0,High,,,-15.0,-0.5929399201429199
16,56d39b96da2aaa000dab6178,16.0,1.0,left,1.3461,,33.0,,0.0,1.0,Low,,,-15.0,0.29721152266791034
17,56d39b96da2aaa000dab6178,17.0,3.0,left,0.5616,1.6428,50.0,30.0,0.0,1.0,Low,-0.5914998924447477,-20.0,-20.0,-0.5769654262705357
18,56d39b96da2aaa000dab6178,18.0,8.0,left,0.6468,,50.0,,0.0,1.0,High,,,-20.0,-0.43571815127918523
19,56d39b96da2aaa000dab6178,19.0,5.0,left,0.6317,1.8988,50.0,30.0,0.0,1.0,Medium,-0.5914998924447477,-20.0,-20.0,-0.45934068107748227
20,56d39b96da2aaa000dab6178,20.0,4.0,left,0.6723,,22.0,,0.0,1.0,Medium,,,-20.0,-0.39705060950714605
21,56d39b96da2aaa000dab6178,21.0,2.0,left,0.7177,,50.0,,0.0,1.0,Low,,,-20.0,-0.33170362454611085
22,56d39b96da2aaa000dab6178,22.0,1.0,left,0.7032,1.7415,50.0,25.0,0.0,1.0,Low,-1.8237913350379726,-25.0,-25.0,-0.35211393261116974
23,56d39b96da2aaa000dab6178,23.0,6.0,left,0.7293,,50.0,,0.0,1.0,Medium,,,-25.0,-0.31567010899194975
24,56d39b96da2aaa000dab6178,24.0,3.0,left,0.5549,1.7667,50.0,30.0,0.0,1.0,Low,-0.5914998924447477,-20.0,-20.0,-0.5889673616502816
25,56d39b96da2aaa000dab6178,25.0,5.0,left,0.596,,40.0,,0.0,1.0,Medium,,,-20.0,-0.5175146119167874
26,56d39b96da2aaa000dab6178,26.0,3.0,left,0.5961,,50.0,,0.0,1.0,Low,,,-20.0,-0.5173468407562563
27,56d39b96da2aaa000dab6178,27.0,2.0,left,0.7472,1.5595,22.0,27.0,0.0,1.0,Low,-1.3308747580006826,5.0,5.0,-0.2914223920675042
28,56d39b96da2aaa000dab6178,28.0,5.0,left,0.7944,,50.0,,0.0,1.0,Medium,,,5.0,-0.23016816625117423
29,56d39b96da2aaa000dab6178,29.0,4.0,left,0.718,1.4841,40.0,30.0,0.0,1.0,Medium,-0.5914998924447477,-10.0,-10.0,-0.33128570993391293
30,56d39b96da2aaa000dab6178,0.0,5.0,left,0.5184,,50.0,,0.0,1.0,Medium,,,-10.0,-0.6570081339440722
31,56d39b96da2aaa000dab6178,1.0,1.0,left,0.7293,,50.0,,0.0,1.0,Low,,,-10.0,-0.31567010899194975
32,56d39b96da2aaa000dab6178,2.0,4.0,left,0.5873,,13.0,,0.0,1.0,Medium,,,-10.0,-0.5322195164536632
33,56d39b96da2aaa000dab6178,3.0,4.0,left,0.5537,1.9435,34.0,34.0,0.0,1.0,Medium,0.39433326162983234,0.0,0.0,-0.5911322551532157
34,56d39b96da2aaa000dab6178,4.0,7.0,left,0.5745,,12.0,,0.0,1.0,High,,,0.0,-0.5542551816933267
35,56d39b96da2aaa000dab6178,5.0,6.0,left,0.5707,,28.0,,0.0,1.0,Medium,,,0.0,-0.5608916014394747
36,56d39b96da2aaa000dab6178,6.0,2.0,left,0.5318,,16.0,,0.0,1.0,Low,,,0.0,-0.6314878001732175
37,56d39b96da2aaa000dab6178,7.0,2.0,left,0.7165,2.1673,21.0,31.0,0.0,1.0,Low,-0.34504160392610267,10.0,10.0,-0.3333770317139105
38,56d39b96da2aaa000dab6178,8.0,7.0,left,0.825,,44.0,,0.0,1.0,High,,,10.0,-0.19237189264745613
39,56d39b96da2aaa000dab6178,9.0,4.0,left,0.7509,,39.0,,0.0,1.0,Medium,,,10.0,-0.2864827918762988
40,56d39b96da2aaa000dab6178,10.0,3.0,left,0.5326,,12.0,,0.0,1.0,Low,,,10.0,-0.6299846056023053
41,56d39b96da2aaa000dab6178,11.0,9.0,left,0.4753,1.5937,50.0,40.0,0.0,1.0,High,1.8730829927417023,-10.0,-10.0,-0.7438090953621733
42,56d39b96da2aaa000dab6178,12.0,4.0,left,0.5635,,50.0,,0.0,1.0,Medium,,,-10.0,-0.5735879455023061
43,56d39b96da2aaa000dab6178,13.0,5.0,left,0.4997,,50.0,,0.0,1.0,Medium,,,-10.0,-0.6937473606319777
44,56d39b96da2aaa000dab6178,14.0,5.0,left,0.4669,1.3747,50.0,40.0,0.0,1.0,Medium,1.8730829927417023,-10.0,-10.0,-0.7616401770052458
45,56d39b96da2aaa000dab6178,15.0,3.0,left,0.5565,,7.0,,0.0,1.0,Low,,,-10.0,-0.5860881082665376
46,56d39b96da2aaa000dab6178,16.0,8.0,left,0.445,,50.0,,0.0,1.0,High,,,-10.0,-0.8096809968158968
47,56d39b96da2aaa000dab6178,17.0,3.0,left,0.5311,1.9199,14.0,29.0,0.0,1.0,Low,-0.8379581809633927,15.0,15.0,-0.6328049515537836
48,56d39b96da2aaa000dab6178,18.0,7.0,left,0.5791,,13.0,,0.0,1.0,High,,,15.0,-0.546280104750393
49,56d39b96da2aaa000dab6178,19.0,6.0,left,0.5518,3.0031,50.0,35.0,0.0,1.0,Medium,0.6407915501484773,-15.0,-15.0,-0.5945696171989514
50,56d39b96da2aaa000dab6178,20.0,6.0,left,0.6079,,45.0,,0.0,1.0,Medium,,,-15.0,-0.49774488422746027
51,56d39b96da2aaa000dab6178,21.0,9.0,left,0.4817,,24.0,,0.0,1.0,High,,,-15.0,-0.7304337653459619
52,56d39b96da2aaa000dab6178,22.0,6.0,left,0.7861,1.406,50.0,35.0,0.0,1.0,Medium,0.6407915501484773,-15.0,-15.0,-0.24067126818242623
53,56d39b96da2aaa000dab6178,23.0,2.0,left,0.7308,,13.0,,0.0,1.0,Low,,,-15.0,-0.31361545447828537
54,56d39b96da2aaa000dab6178,24.0,8.0,left,0.4683,1.6279,19.0,34.0,0.0,1.0,High,0.39433326162983234,15.0,15.0,-0.758646162792641
55,56d39b96da2aaa000dab6178,25.0,5.0,left,0.5322,,50.0,,0.0,1.0,Medium,,,15.0,-0.6307359204385482
56,56d39b96da2aaa000dab6178,26.0,8.0,left,0.5624,,50.0,,0.0,1.0,High,,,15.0,-0.5755419384856819
57,56d39b96da2aaa000dab6178,27.0,5.0,left,0.5135,1.2352,33.0,33.0,0.0,1.0,Medium,0.14787497311118736,0.0,0.0,-0.6665052496135242
58,56d39b96da2aaa000dab6178,28.0,5.0,left,0.5972,,50.0,,0.0,1.0,Medium,,,0.0,-0.5155032133171018
59,56d39b96da2aaa000dab6178,29.0,1.0,left,0.9464,1.6748,50.0,30.0,0.0,1.0,Low,-0.5914998924447477,-20.0,-20.0,-0.05508996631796001
0,56f2a49ced0cf600069131cd,0.0,5.0,left,1.8694,,6.0,,0.0,1.0,Medium,,,,0.6256175237663459
1,56f2a49ced0cf600069131cd,1.0,2.0,right,1.6461,,37.0,,1.0,0.0,Low,,,,0.49840885375090227
2,56f2a49ced0cf600069131cd,2.0,4.0,left,1.6497,3.2184,50.0,21.51227679,0.0,1.0,Medium,-0.9421961658547297,-28.48772321,-28.48772321,0.5005934531997416
3,56f2a49ced0cf600069131cd,3.0,5.0,left,1.1366,,50.0,,0.0,1.0,Medium,,,-28.48772321,0.12804134988088411
4,56f2a49ced0cf600069131cd,4.0,1.0,right,1.4321,3.2105,27.0,21.51227679,1.0,0.0,Low,-0.9421961658547297,-5.487723209999999,-5.487723209999999,0.35914189850251976
5,56f2a49ced0cf600069131cd,5.0,8.0,left,1.5292,,38.0,,0.0,1.0,High,,,-5.487723209999999,0.4247447228401206
6,56f2a49ced0cf600069131cd,6.0,9.0,left,0.7578,,50.0,,0.0,1.0,High,,,-5.487723209999999,-0.27733578039763657
7,56f2a49ced0cf600069131cd,7.0,5.0,left,0.8944,,28.0,,0.0,1.0,Medium,,,-5.487723209999999,-0.11160217658130236
8,56f2a49ced0cf600069131cd,8.0,7.0,left,0.6268,3.2252,50.0,29.3181335,0.0,1.0,High,0.3488598045606789,-20.6818665,-20.6818665,-0.46712776850027127
9,56f2a49ced0cf600069131cd,9.0,7.0,left,0.7203,,50.0,,0.0,1.0,High,,,-20.6818665,-0.32808748708681973
10,56f2a49ced0cf600069131cd,10.0,6.0,left,0.8645,,50.0,,0.0,1.0,Medium,,,-20.6818665,-0.1456039738587918
11,56f2a49ced0cf600069131cd,11.0,6.0,left,0.8759,,33.0,,0.0,1.0,Medium,,,-20.6818665,-0.13250334981309375
12,56f2a49ced0cf600069131cd,12.0,3.0,left,2.8078,6.6812,22.0,28.57076424,0.0,1.0,Low,0.22524806262441865,6.570764239999999,6.570764239999999,1.0324012585557136
13,56f2a49ced0cf600069131cd,13.0,3.0,left,1.7227,,50.0,,0.0,1.0,Low,,,6.570764239999999,0.5438928274701864
14,56f2a49ced0cf600069131cd,14.0,6.0,left,2.1304,2.6603,50.0,28.65380527,0.0,1.0,Medium,0.23898270080110964,-21.34619473,-21.34619473,0.7563097555175854
15,56f2a49ced0cf600069131cd,15.0,7.0,left,0.7691,,50.0,,0.0,1.0,High,,,-21.34619473,-0.2625342789191289
16,56f2a49ced0cf600069131cd,16.0,5.0,left,0.5688,,9.0,,0.0,1.0,Medium,,,-21.34619473,-0.564226400493106
17,56f2a49ced0cf600069131cd,17.0,8.0,left,1.1454,2.8635,50.0,40.44563138,0.0,1.0,High,2.1893012970818515,-9.554368619999998,-9.554368619999998,0.13575392097761985
18,56f2a49ced0cf600069131cd,18.0,9.0,left,0.7243,,50.0,,0.0,1.0,High,,,-9.554368619999998,-0.3225496077808566
19,56f2a49ced0cf600069131cd,19.0,4.0,left,1.0456,,50.0,,0.0,1.0,Medium,,,-9.554368619999998,0.04459088332787522
20,56f2a49ced0cf600069131cd,20.0,8.0,left,0.9228,,8.0,,0.0,1.0,High,,,-9.554368619999998,-0.0803427526825385
21,56f2a49ced0cf600069131cd,21.0,6.0,left,0.9479,4.9554,36.0,32.4736926,0.0,1.0,Medium,0.8707760486591023,-3.5263074000000003,-3.5263074000000003,-0.053506267523141166
22,56f2a49ced0cf600069131cd,22.0,5.0,left,0.8768,,50.0,,0.0,1.0,Medium,,,-3.5263074000000003,-0.13147636278838593
23,56f2a49ced0cf600069131cd,23.0,4.0,right,1.2982,5.5686,38.0,35.87837479,1.0,0.0,Medium,1.4338962072875987,-2.1216252099999977,-2.1216252099999977,0.26097868961723114
24,56f2a49ced0cf600069131cd,24.0,1.0,right,1.1489,,31.0,,1.0,0.0,Low,,,-2.1216252099999977,0.1388049628771821
25,56f2a49ced0cf600069131cd,25.0,5.0,left,0.7938,,50.0,,0.0,1.0,Medium,,,-2.1216252099999977,-0.23092373863317212
26,56f2a49ced0cf600069131cd,26.0,2.0,right,1.3461,2.8535,21.0,22.01052296,1.0,0.0,Low,-0.8597883384485424,1.0105229599999994,1.0105229599999994,0.29721152266791034
27,56f2a49ced0cf600069131cd,27.0,2.0,right,1.1811,,13.0,,1.0,0.0,Low,,,1.0105229599999994,0.1664462076356645
28,56f2a49ced0cf600069131cd,28.0,4.0,left,1.0133,,35.0,,0.0,1.0,Medium,,,1.0105229599999994,0.0132123314721349
29,56f2a49ced0cf600069131cd,29.0,3.0,right,1.0612,2.5386,50.0,25.08304103,1.0,0.0,Low,-0.35160673252681,-24.91695897,-24.91695897,0.059400343281447464
30,56f2a49ced0cf600069131cd,0.0,5.0,left,0.8454,,19.0,,0.0,1.0,Medium,,,-24.91695897,-0.16794539084944746
31,56f2a49ced0cf600069131cd,1.0,6.0,left,0.7619,,15.0,,0.0,1.0,Medium,,,-24.91695897,-0.27193996550317306
32,56f2a49ced0cf600069131cd,2.0,7.0,left,1.0097,3.5999,12.0,25.74736926,0.0,1.0,High,-0.24172962876724077,13.74736926,13.74736926,0.009653257028138346
33,56f2a49ced0cf600069131cd,3.0,5.0,left,0.7605,,50.0,,0.0,1.0,Medium,,,13.74736926,-0.27377916728278956
34,56f2a49ced0cf600069131cd,4.0,7.0,left,0.8365,4.2523,50.0,25.74736926,0.0,1.0,High,-0.24172962876724077,-24.25263074,-24.25263074,-0.17852875855525838
35,56f2a49ced0cf600069131cd,5.0,7.0,left,0.8239,,34.0,,0.0,1.0,High,,,-24.25263074,-0.19370611566059276
36,56f2a49ced0cf600069131cd,6.0,5.0,left,1.2653,,6.0,,0.0,1.0,Medium,,,-24.25263074,0.235309248213081
37,56f2a49ced0cf600069131cd,7.0,2.0,right,2.0498,,19.0,,1.0,0.0,Low,,,-24.25263074,0.7177422274153255
38,56f2a49ced0cf600069131cd,8.0,2.0,left,1.1845,2.3981,33.0,25.74736926,0.0,1.0,Low,-0.24172962876724077,-7.252630740000001,-7.252630740000001,0.16932074461670318
39,56f2a49ced0cf600069131cd,9.0,6.0,left,1.1867,,50.0,,0.0,1.0,Medium,,,-7.252630740000001,0.17117634568895643
40,56f2a49ced0cf600069131cd,10.0,8.0,left,1.5253,,50.0,,0.0,1.0,High,,,-7.252630740000001,0.42219111202375054
41,56f2a49ced0cf600069131cd,11.0,4.0,left,1.2378,,41.0,,0.0,1.0,Medium,,,-7.252630740000001,0.2133356103231241
42,56f2a49ced0cf600069131cd,12.0,1.0,right,1.1925,3.3296,50.0,18.85496386,1.0,0.0,Low,-1.3817045825469654,-31.14503614,-31.14503614,0.17605194378035913
43,56f2a49ced0cf600069131cd,13.0,5.0,left,1.0373,,50.0,,0.0,1.0,Medium,,,-31.14503614,0.03662118345564541
44,56f2a49ced0cf600069131cd,14.0,3.0,right,1.5713,4.6876,48.0,22.75789222,1.0,0.0,Low,-0.7361765965122822,-25.24210778,-25.24210778,0.451903302213949
45,56f2a49ced0cf600069131cd,15.0,5.0,left,0.9608,,30.0,,0.0,1.0,Medium,,,-25.24210778,-0.03998900821636328
46,56f2a49ced0cf600069131cd,16.0,1.0,right,1.1599,,40.0,,1.0,0.0,Low,,,-25.24210778,0.14833379450569342
47,56f2a49ced0cf600069131cd,17.0,3.0,right,1.9012,3.257,50.0,22.09356399,1.0,0.0,Low,-0.8460537002718514,-27.90643601,-27.90643601,0.6424852657577174
48,56f2a49ced0cf600069131cd,18.0,2.0,left,1.051,,50.0,,0.0,1.0,Low,,,-27.90643601,0.04974209189481401
49,56f2a49ced0cf600069131cd,19.0,6.0,left,2.5106,,50.0,,0.0,1.0,Medium,,,-27.90643601,0.9205217684019711
50,56f2a49ced0cf600069131cd,20.0,5.0,left,5.5163,,14.0,,0.0,1.0,Medium,,,-27.90643601,1.7077073456892515
51,56f2a49ced0cf600069131cd,21.0,4.0,left,0.9018,7.2139,30.0,21.42923576,0.0,1.0,Medium,-0.9559308040314206,-8.570764239999999,-8.570764239999999,-0.1033625129951532
52,56f2a49ced0cf600069131cd,22.0,9.0,left,1.2248,,50.0,,0.0,1.0,High,,,-8.570764239999999,0.20277756536133704
53,56f2a49ced0cf600069131cd,23.0,3.0,right,1.2339,3.7358,50.0,26.90994366,1.0,0.0,Low,-0.049444697601483775,-23.09005634,-23.09005634,0.21017988492235104
54,56f2a49ced0cf600069131cd,24.0,4.0,left,0.6781,,50.0,,0.0,1.0,Medium,,,-23.09005634,-0.38846050929234055
55,56f2a49ced0cf600069131cd,25.0,4.0,left,0.7263,,50.0,,0.0,1.0,Medium,,,-23.09005634,-0.31979212637001464
56,56f2a49ced0cf600069131cd,26.0,8.0,left,1.0584,3.6581,32.0,30.06550276,0.0,1.0,High,0.4724715464969397,-1.934497239999999,-1.934497239999999,0.05675833381860888
57,56f2a49ced0cf600069131cd,27.0,8.0,left,0.8647,,50.0,,0.0,1.0,High,,,-1.934497239999999,-0.14537265301575247
58,56f2a49ced0cf600069131cd,28.0,9.0,left,0.969,,50.0,,0.0,1.0,High,,,-1.934497239999999,-0.03149066709137085
59,56f2a49ced0cf600069131cd,29.0,6.0,left,1.5526,4.3358,49.0,39.366098,0.0,1.0,Medium,2.0107510024388273,-9.633901999999999,-9.633901999999999,0.4399309449894429
0,56f59251736c79000c2241f7,0.0,5.0,left,0.5219,,50.0,,0.0,1.0,Medium,,,,-0.6502792803327695
1,56f59251736c79000c2241f7,1.0,2.0,left,0.4719,,50.0,,0.0,1.0,Low,,,,-0.7509881802497953
2,56f59251736c79000c2241f7,2.0,8.0,left,0.4323,5.251,50.0,25.0,0.0,1.0,High,0.0379681201629763,-25.0,-25.0,-0.8386354873085509
3,56f59251736c79000c2241f7,3.0,5.0,left,0.4122,,50.0,,0.0,1.0,Medium,,,-25.0,-0.8862466105257784
4,56f59251736c79000c2241f7,4.0,2.0,left,0.5192,,14.0,,0.0,1.0,Low,,,-25.0,-0.6554661135922568
5,56f59251736c79000c2241f7,5.0,5.0,left,0.433,,50.0,,0.0,1.0,Medium,,,-25.0,-0.8370175509796473
6,56f59251736c79000c2241f7,6.0,4.0,left,0.4172,3.8661,40.0,25.0,0.0,1.0,Medium,0.0379681201629763,-15.0,-15.0,-0.8741895558555196
7,56f59251736c79000c2241f7,7.0,4.0,left,1.1834,,50.0,,0.0,1.0,Medium,,,-15.0,0.16839165126045666
8,56f59251736c79000c2241f7,8.0,3.0,left,0.4398,3.3737,50.0,25.0,0.0,1.0,Low,0.0379681201629763,-25.0,-25.0,-0.8214352008614761
9,56f59251736c79000c2241f7,9.0,9.0,left,0.7,,50.0,,0.0,1.0,High,,,-25.0,-0.35667494393873245
10,56f59251736c79000c2241f7,10.0,5.0,left,0.5574,1.7359,27.0,27.0,0.0,1.0,Medium,1.5566929266820067,0.0,0.0,-0.5844721639342892
11,56f59251736c79000c2241f7,11.0,1.0,left,0.4594,,11.0,,0.0,1.0,Low,,,0.0,-0.7778339887271393
12,56f59251736c79000c2241f7,12.0,4.0,left,0.4268,,36.0,,0.0,1.0,Medium,,,0.0,-0.8514397595545388
13,56f59251736c79000c2241f7,13.0,9.0,left,0.5266,1.7439,15.0,25.0,0.0,1.0,High,0.0379681201629763,10.0,10.0,-0.6413140319199281
14,56f59251736c79000c2241f7,14.0,7.0,left,0.36,,50.0,,0.0,1.0,High,,,10.0,-1.0216512475319814
15,56f59251736c79000c2241f7,15.0,3.0,left,0.3355,,50.0,,0.0,1.0,Low,,,10.0,-1.0921333225704004
16,56f59251736c79000c2241f7,16.0,3.0,left,0.3836,4.0843,28.0,23.0,0.0,1.0,Low,-1.4807566863560542,-5.0,-5.0,-0.958154935972854
17,56f59251736c79000c2241f7,17.0,6.0,left,0.5167,,50.0,,0.0,1.0,Medium,,,-5.0,-0.660292843688998
18,56f59251736c79000c2241f7,18.0,4.0,left,0.3833,,24.0,,0.0,1.0,Medium,,,-5.0,-0.9589373065956277
19,56f59251736c79000c2241f7,19.0,6.0,left,0.4812,0.8502,28.0,23.0,0.0,1.0,Medium,-1.4807566863560542,-5.0,-5.0,-0.7314722948816132
20,56f59251736c79000c2241f7,20.0,6.0,left,0.4289,,26.0,,0.0,1.0,Medium,,,-5.0,-0.8465314874593023
21,56f59251736c79000c2241f7,21.0,5.0,left,0.3194,2.6331,50.0,25.0,0.0,1.0,Medium,0.0379681201629763,-25.0,-25.0,-1.141311043201225
22,56f59251736c79000c2241f7,22.0,1.0,left,1.0853,,29.0,,0.0,1.0,Low,,,-25.0,0.08185644646983214
23,56f59251736c79000c2241f7,23.0,8.0,left,0.4947,,32.0,,0.0,1.0,High,,,-25.0,-0.7038037607484742
24,56f59251736c79000c2241f7,24.0,7.0,left,0.5224,,50.0,,0.0,1.0,High,,,-25.0,-0.6493217010199158
25,56f59251736c79000c2241f7,25.0,2.0,left,0.8992,1.9424,7.0,27.0,0.0,1.0,Low,1.5566929266820067,20.0,20.0,-0.10624979984271042
26,56f59251736c79000c2241f7,26.0,6.0,left,1.0376,,50.0,,0.0,1.0,Medium,,,20.0,0.03691035402009715
27,56f59251736c79000c2241f7,27.0,7.0,left,0.8343,,32.0,,0.0,1.0,High,,,20.0,-0.18116222907410814
28,56f59251736c79000c2241f7,28.0,8.0,left,0.49,,50.0,,0.0,1.0,High,,,20.0,-0.7133498878774648
29,56f59251736c79000c2241f7,29.0,5.0,left,0.3745,4.184,13.0,23.0,0.0,1.0,Medium,-1.4807566863560542,10.0,10.0,-0.9821634760248629
30,56f59251736c79000c2241f7,0.0,5.0,left,0.437,,50.0,,0.0,1.0,Medium,,,10.0,-0.8278220838865469
31,56f59251736c79000c2241f7,1.0,7.0,left,0.5003,,26.0,,0.0,1.0,High,,,10.0,-0.6925473604879777
32,56f59251736c79000c2241f7,2.0,7.0,left,0.4168,1.7277,48.0,23.0,0.0,1.0,High,-1.4807566863560542,-25.0,-25.0,-0.8751487885429798
33,56f59251736c79000c2241f7,3.0,5.0,left,0.662,,45.0,,0.0,1.0,Medium,,,-25.0,-0.4124897230451288
34,56f59251736c79000c2241f7,4.0,5.0,left,0.4708,,11.0,,0.0,1.0,Medium,,,-25.0,-0.7533219035960154
35,56f59251736c79000c2241f7,5.0,9.0,left,0.6134,,36.0,,0.0,1.0,High,,,-25.0,-0.48873802730198596
36,56f59251736c79000c2241f7,6.0,6.0,left,0.5803,1.6437,50.0,25.0,0.0,1.0,Medium,0.0379681201629763,-25.0,-25.0,-0.5442100677855743
37,56f59251736c79000c2241f7,7.0,6.0,left,1.0003,,10.0,,0.0,1.0,Medium,,,-25.0,0.00029995500899794244
38,56f59251736c79000c2241f7,8.0,5.0,left,0.5367,1.9337,45.0,25.0,0.0,1.0,Medium,0.0379681201629763,-20.0,-20.0,-0.6223159997993539
39,56f59251736c79000c2241f7,9.0,2.0,left,0.6004,,50.0,,0.0,1.0,Low,,,-20.0,-0.51015917922283
40,56f59251736c79000c2241f7,10.0,3.0,left,0.4818,0.932,29.0,24.0,0.0,1.0,Low,-0.7213942830965389,-5.0,-5.0,-0.730226188801366
41,56f59251736c79000c2241f7,11.0,4.0,left,1.6207,,9.0,,0.0,1.0,Medium,,,-5.0,0.4828581546819369
42,56f59251736c79000c2241f7,12.0,5.0,left,1.1535,,12.0,,0.0,1.0,Medium,,,-5.0,0.14280079863167128
43,56f59251736c79000c2241f7,13.0,6.0,left,1.1191,1.567,50.0,25.0,0.0,1.0,Medium,0.0379681201629763,-25.0,-25.0,0.11252479084184441
44,56f59251736c79000c2241f7,14.0,2.0,left,11.0692,,9.0,,0.0,1.0,Low,,,-25.0,2.4041664767197912
45,56f59251736c79000c2241f7,15.0,2.0,left,0.4409,,50.0,,0.0,1.0,Low,,,-25.0,-0.8189371866182451
46,56f59251736c79000c2241f7,16.0,8.0,left,0.4955,2.2102,42.0,27.0,0.0,1.0,High,1.5566929266820067,-15.0,-15.0,-0.7021879252120944
47,56f59251736c79000c2241f7,17.0,4.0,left,0.5337,,50.0,,0.0,1.0,Medium,,,-15.0,-0.627921395642238
48,56f59251736c79000c2241f7,18.0,1.0,left,0.4001,,8.0,,0.0,1.0,Low,,,-15.0,-0.9160407631189477
49,56f59251736c79000c2241f7,19.0,6.0,left,0.4709,1.7062,50.0,25.0,0.0,1.0,Medium,0.0379681201629763,-25.0,-25.0,-0.7531095217326282
50,56f59251736c79000c2241f7,20.0,4.0,left,1.7565,,50.0,,0.0,1.0,Medium,,,-25.0,0.5633231927237446
51,56f59251736c79000c2241f7,21.0,4.0,left,1.9809,1.5327,25.0,25.0,0.0,1.0,Medium,0.0379681201629763,0.0,0.0,0.6835512868864984
52,56f59251736c79000c2241f7,22.0,7.0,left,0.5341,,50.0,,0.0,1.0,High,,,0.0,-0.6271721916364124
53,56f59251736c79000c2241f7,23.0,9.0,left,0.5311,,50.0,,0.0,1.0,High,,,0.0,-0.6328049515537836
54,56f59251736c79000c2241f7,24.0,8.0,left,0.6032,,34.0,,0.0,1.0,High,,,0.0,-0.5055064622883908
55,56f59251736c79000c2241f7,25.0,8.0,left,0.6098,2.4672,12.0,27.0,0.0,1.0,High,1.5566929266820067,15.0,15.0,-0.49462424442798264
56,56f59251736c79000c2241f7,26.0,3.0,left,0.65,,45.0,,0.0,1.0,Low,,,15.0,-0.4307829160924542
57,56f59251736c79000c2241f7,27.0,3.0,left,0.3338,,50.0,,0.0,1.0,Low,,,15.0,-1.0972132677544024
58,56f59251736c79000c2241f7,28.0,1.0,left,0.5874,,50.0,,0.0,1.0,Low,,,15.0,-0.5320492602176173
59,56f59251736c79000c2241f7,29.0,5.0,left,0.7997,1.967,50.0,25.0,0.0,1.0,Medium,0.0379681201629763,-25.0,-25.0,-0.22351862164429287
0,570f018053cc8f000f8d4bbb,0.0,5.0,right,1.0199,,50.0,,1.0,0.0,Medium,,,,0.01970458327433543
1,570f018053cc8f000f8d4bbb,1.0,5.0,left,1.0093,,50.0,,0.0,1.0,Medium,,,,0.009257021262676848
2,570f018053cc8f000f8d4bbb,2.0,8.0,left,1.0789,,6.0,,0.0,1.0,High,,,,0.07594200357515733
3,570f018053cc8f000f8d4bbb,3.0,6.0,left,0.5662,2.5918,10.0,50.0,0.0,1.0,Medium,,40.0,40.0,-0.5688079063043378
4,570f018053cc8f000f8d4bbb,4.0,3.0,right,0.97,,36.0,,1.0,0.0,Low,,,40.0,-0.030459207484708574
5,570f018053cc8f000f8d4bbb,5.0,4.0,left,1.0837,,15.0,,0.0,1.0,Medium,,,40.0,0.08038111194681256
6,570f018053cc8f000f8d4bbb,6.0,9.0,left,0.6626,2.2735,19.0,50.0,0.0,1.0,High,,31.0,31.0,-0.41158378911634164
7,570f018053cc8f000f8d4bbb,7.0,3.0,right,1.0059,,24.0,,1.0,0.0,Low,,,31.0,0.005882663158155512
8,570f018053cc8f000f8d4bbb,8.0,5.0,left,0.7592,,21.0,,0.0,1.0,Medium,,,31.0,-0.27549003168641895
9,570f018053cc8f000f8d4bbb,9.0,2.0,right,0.9132,4.9537,50.0,50.0,1.0,0.0,Low,,0.0,0.0,-0.09080036432649657
10,570f018053cc8f000f8d4bbb,10.0,1.0,right,0.8633,,50.0,,1.0,0.0,Low,,,0.0,-0.14699302374066012
11,570f018053cc8f000f8d4bbb,11.0,5.0,left,0.6544,1.9245,26.0,50.0,0.0,1.0,Medium,,24.0,24.0,-0.4240364936935998
12,570f018053cc8f000f8d4bbb,12.0,8.0,left,0.5682,,50.0,,0.0,1.0,High,,,24.0,-0.5652818095620494
13,570f018053cc8f000f8d4bbb,13.0,3.0,right,0.9011,,50.0,,1.0,0.0,Low,,,24.0,-0.1041390397411454
14,570f018053cc8f000f8d4bbb,14.0,7.0,left,0.6805,2.1422,11.0,50.0,0.0,1.0,High,,39.0,39.0,-0.3849274568906163
15,570f018053cc8f000f8d4bbb,15.0,7.0,left,0.8971,,18.0,,0.0,1.0,High,,,39.0,-0.10858794041689919
16,570f018053cc8f000f8d4bbb,16.0,2.0,right,1.289,,11.0,,1.0,0.0,Low,,,39.0,0.2538667239570503
17,570f018053cc8f000f8d4bbb,17.0,2.0,right,1.1737,,27.0,,1.0,0.0,Low,,,39.0,0.16016115212394114
18,570f018053cc8f000f8d4bbb,18.0,9.0,left,0.6575,2.9099,50.0,50.0,0.0,1.0,High,,0.0,0.0,-0.4193105149302175
19,570f018053cc8f000f8d4bbb,19.0,4.0,left,1.3163,,20.0,,0.0,1.0,Medium,,,0.0,0.274824770449225
20,570f018053cc8f000f8d4bbb,20.0,4.0,left,1.2129,1.5779,46.0,50.0,0.0,1.0,Medium,,4.0,4.0,0.1930141863326979
21,570f018053cc8f000f8d4bbb,21.0,8.0,left,0.9381,,14.0,,0.0,1.0,High,,,4.0,-0.06389872585023171
22,570f018053cc8f000f8d4bbb,22.0,6.0,left,0.8533,,50.0,,0.0,1.0,Medium,,,4.0,-0.15864409343959796
23,570f018053cc8f000f8d4bbb,23.0,1.0,right,0.9699,,50.0,,1.0,0.0,Low,,,4.0,-0.03056230558263998
24,570f018053cc8f000f8d4bbb,24.0,6.0,left,1.4413,1.6637,50.0,50.0,0.0,1.0,Medium,,0.0,0.0,0.36554548410692006
25,570f018053cc8f000f8d4bbb,25.0,5.0,left,1.6992,,50.0,,0.0,1.0,Medium,,,0.0,0.5301575520654827
26,570f018053cc8f000f8d4bbb,26.0,4.0,left,0.6915,,50.0,,0.0,1.0,Medium,,,0.0,-0.36889212787732417
27,570f018053cc8f000f8d4bbb,27.0,5.0,left,0.6001,1.5466,50.0,50.0,0.0,1.0,Medium,,0.0,0.0,-0.5106589709866699
28,570f018053cc8f000f8d4bbb,28.0,7.0,left,0.9701,,50.0,,0.0,1.0,High,,,0.0,-0.030356120014899235
29,570f018053cc8f000f8d4bbb,29.0,6.0,left,1.3018,1.3971,50.0,50.0,0.0,1.0,Medium,,0.0,0.0,0.26374792215614995
30,570f018053cc8f000f8d4bbb,0.0,5.0,left,1.0058,,27.0,,0.0,1.0,Medium,,,0.0,0.005783244755727361
31,570f018053cc8f000f8d4bbb,1.0,4.0,left,0.8236,,50.0,,0.0,1.0,Medium,,,0.0,-0.19407030382850268
32,570f018053cc8f000f8d4bbb,2.0,6.0,left,0.9728,,42.0,,0.0,1.0,Medium,,,0.0,-0.027576767770234493
33,570f018053cc8f000f8d4bbb,3.0,7.0,left,0.804,1.3427,50.0,50.0,0.0,1.0,High,,0.0,0.0,-0.21815600980317063
34,570f018053cc8f000f8d4bbb,4.0,3.0,right,0.9191,,50.0,,1.0,0.0,Low,,,0.0,-0.08436034861807322
35,570f018053cc8f000f8d4bbb,5.0,1.0,right,0.769,,50.0,,1.0,0.0,Low,,,0.0,-0.26266430947649305
36,570f018053cc8f000f8d4bbb,6.0,6.0,left,0.6048,4.106,25.0,50.0,0.0,1.0,Medium,,,0.0,-0.5028574541168138
37,570f018053cc8f000f8d4bbb,7.0,4.0,left,1.6191,,26.0,,0.0,1.0,Medium,,,0.0,0.4818704393105697
38,570f018053cc8f000f8d4bbb,8.0,2.0,right,1.0183,,44.0,,1.0,0.0,Low,,,0.0,0.018134570195482678
39,570f018053cc8f000f8d4bbb,9.0,5.0,left,0.585,2.9744,39.0,50.0,0.0,1.0,Medium,,11.0,11.0,-0.5361434317502807
40,570f018053cc8f000f8d4bbb,10.0,2.0,right,0.9866,,50.0,,1.0,0.0,Low,,,11.0,-0.013490590182499144
41,570f018053cc8f000f8d4bbb,11.0,5.0,left,0.69,1.2288,50.0,50.0,0.0,1.0,Medium,,0.0,0.0,-0.37106368139083207
42,570f018053cc8f000f8d4bbb,12.0,3.0,right,1.2387,,50.0,,1.0,0.0,Low,,,0.0,0.21406244257801713
43,570f018053cc8f000f8d4bbb,13.0,2.0,right,0.6717,,50.0,,1.0,0.0,Low,,,0.0,-0.3979434667093183
44,570f018053cc8f000f8d4bbb,14.0,6.0,left,1.4332,3.3069,35.0,50.0,0.0,1.0,Medium,,15.0,15.0,0.3599097064486617
45,570f018053cc8f000f8d4bbb,15.0,9.0,left,1.7662,,50.0,,0.0,1.0,High,,,15.0,0.5688303460525648
46,570f018053cc8f000f8d4bbb,16.0,8.0,left,0.9489,,8.0,,0.0,1.0,High,,,15.0,-0.05245186000242424
47,570f018053cc8f000f8d4bbb,17.0,8.0,left,0.6613,,50.0,,0.0,1.0,High,,,15.0,-0.4135476843015204
48,570f018053cc8f000f8d4bbb,18.0,7.0,left,1.8342,2.8254,50.0,50.0,0.0,1.0,High,,0.0,0.0,0.6066084191427068
49,570f018053cc8f000f8d4bbb,19.0,3.0,right,1.2684,,50.0,,1.0,0.0,Low,,,0.0,0.23775626368205519
50,570f018053cc8f000f8d4bbb,20.0,5.0,left,1.3181,1.2638,49.0,50.0,0.0,1.0,Medium,,1.0,1.0,0.27619130573628303
51,570f018053cc8f000f8d4bbb,21.0,8.0,left,1.5408,,50.0,,0.0,1.0,High,,,1.0,0.43230176206172405
52,570f018053cc8f000f8d4bbb,22.0,5.0,left,1.4671,,50.0,,0.0,1.0,Medium,,,1.0,0.38328766316346136
53,570f018053cc8f000f8d4bbb,23.0,4.0,left,0.9689,,50.0,,0.0,1.0,Medium,,,1.0,-0.03159387159117863
54,570f018053cc8f000f8d4bbb,24.0,7.0,left,0.8678,1.7444,50.0,50.0,0.0,1.0,High,,0.0,0.0,-0.14179400561788671
55,570f018053cc8f000f8d4bbb,25.0,4.0,left,1.127,,50.0,,0.0,1.0,Medium,,,0.0,0.11955923505763925
56,570f018053cc8f000f8d4bbb,26.0,1.0,right,0.6708,,48.0,,1.0,0.0,Low,,,0.0,-0.39928424903308335
57,570f018053cc8f000f8d4bbb,27.0,6.0,left,0.6521,2.043,48.0,50.0,0.0,1.0,Medium,,2.0,2.0,-0.42755735458298044
58,570f018053cc8f000f8d4bbb,28.0,5.0,left,0.9716,,38.0,,0.0,1.0,Medium,,,2.0,-0.0288110818541196
59,570f018053cc8f000f8d4bbb,29.0,9.0,left,0.6182,1.4451,50.0,50.0,0.0,1.0,High,,0.0,0.0,-0.4809432492841212
0,57a761c22fc0d400012c9656,0.0,5.0,left,0.4469,,50.0,,0.0,1.0,Medium,,,,-0.8054204230427312
1,57a761c22fc0d400012c9656,1.0,8.0,left,0.5101,,50.0,,0.0,1.0,High,,,,-0.6731484940532562
2,57a761c22fc0d400012c9656,2.0,6.0,left,0.8935,,11.0,,0.0,1.0,Medium,,,,-0.11260894438265437
3,57a761c22fc0d400012c9656,3.0,5.0,left,0.5964,4.7243,50.0,27.00200964,0.0,1.0,Medium,0.011257157821464739,-22.99799036,-22.99799036,-0.5168436960915537
4,57a761c22fc0d400012c9656,4.0,1.0,left,14.0233,,42.0,,0.0,1.0,Low,,,-22.99799036,2.640720231940765
5,57a761c22fc0d400012c9656,5.0,3.0,left,0.6784,,50.0,,0.0,1.0,Low,,,-22.99799036,-0.38801819450444375
6,57a761c22fc0d400012c9656,6.0,2.0,left,1.7126,2.8109,47.0,21.71945046,0.0,1.0,Low,-0.8892558548578509,-25.28054954,-25.28054954,0.5380126836099546
7,57a761c22fc0d400012c9656,7.0,6.0,left,4.2105,,12.0,,0.0,1.0,Medium,,,-25.28054954,1.4375814054879097
8,57a761c22fc0d400012c9656,8.0,2.0,left,0.3615,,50.0,,0.0,1.0,Low,,,-25.28054954,-1.0174932373833177
9,57a761c22fc0d400012c9656,9.0,5.0,left,0.5063,3.1437,50.0,26.47434589,0.0,1.0,Medium,-0.07869319711126829,-23.52565411,-23.52565411,-0.6806259000062737
10,57a761c22fc0d400012c9656,10.0,5.0,left,1.9125,,50.0,,0.0,1.0,Medium,,,-23.52565411,0.6484112867185539
11,57a761c22fc0d400012c9656,11.0,9.0,left,0.3652,3.2254,50.0,35.30673245,0.0,1.0,High,1.4269556293906427,-14.693267550000002,-14.693267550000002,-1.0073101302613237
12,57a761c22fc0d400012c9656,12.0,4.0,left,2.8969,,50.0,,0.0,1.0,Medium,,,-14.693267550000002,1.0636411997240574
13,57a761c22fc0d400012c9656,13.0,8.0,left,0.6088,,22.0,,0.0,1.0,High,,,-14.693267550000002,-0.49626547243466096
14,57a761c22fc0d400012c9656,14.0,4.0,left,3.893,2.9439,6.0,29.13784364,0.0,1.0,Medium,0.37535081856165786,23.13784364,23.13784364,1.3591800686283186
15,57a761c22fc0d400012c9656,15.0,3.0,left,3.4769,,25.0,,0.0,1.0,Low,,,23.13784364,1.246141092186481
16,57a761c22fc0d400012c9656,16.0,3.0,left,2.4009,,39.0,,0.0,1.0,Low,,,23.13784364,0.8758436670589731
17,57a761c22fc0d400012c9656,17.0,1.0,left,0.9866,,50.0,,0.0,1.0,Low,,,23.13784364,-0.013490590182499144
18,57a761c22fc0d400012c9656,18.0,4.0,left,9.3421,4.2553,50.0,27.46390013,0.0,1.0,Medium,0.08999520551860833,-22.53609987,-22.53609987,2.23453106636859
19,57a761c22fc0d400012c9656,19.0,7.0,left,0.5743,,50.0,,0.0,1.0,High,,,-22.53609987,-0.5546033711118862
20,57a761c22fc0d400012c9656,20.0,2.0,left,0.3812,2.8186,50.0,21.77174035,0.0,1.0,Low,-0.8803420453249928,-28.22825965,-28.22825965,-0.96443110720209
21,57a761c22fc0d400012c9656,21.0,8.0,left,0.5341,,50.0,,0.0,1.0,High,,,-28.22825965,-0.6271721916364124
22,57a761c22fc0d400012c9656,22.0,6.0,left,1.1467,,38.0,,0.0,1.0,Medium,,,-28.22825965,0.13688825206212168
23,57a761c22fc0d400012c9656,23.0,9.0,left,6.7828,3.088,35.0,33.31276742,0.0,1.0,High,1.0870462416944882,-1.6872325799999999,-1.6872325799999999,1.9143899960508353
24,57a761c22fc0d400012c9656,24.0,6.0,left,0.4937,,50.0,,0.0,1.0,Medium,,,-1.6872325799999999,-0.7058272337173198
25,57a761c22fc0d400012c9656,25.0,7.0,left,0.6349,2.9092,50.0,32.41782733,0.0,1.0,High,0.9344866263352151,-17.58217267,-17.58217267,-0.4542877728057328
26,57a761c22fc0d400012c9656,26.0,5.0,left,0.7434,,6.0,,0.0,1.0,Medium,,,-17.58217267,-0.2965210211189854
27,57a761c22fc0d400012c9656,27.0,7.0,left,2.8162,,47.0,,0.0,1.0,High,,,-17.58217267,1.0353884585010742
28,57a761c22fc0d400012c9656,28.0,5.0,left,1.0336,,50.0,,0.0,1.0,Medium,,,-17.58217267,0.03304785404620042
29,57a761c22fc0d400012c9656,29.0,4.0,left,0.725,2.3179,50.0,20.31091386,0.0,1.0,Medium,-1.1293677956643675,-29.68908614,-29.68908614,-0.32158362412746233
30,57a761c22fc0d400012c9656,0.0,5.0,left,1.4014,,50.0,,0.0,1.0,Medium,,,-29.68908614,0.33747173695429644
31,57a761c22fc0d400012c9656,1.0,5.0,left,0.4855,,35.0,,0.0,1.0,Medium,,,-29.68908614,-0.7225759912507574
32,57a761c22fc0d400012c9656,2.0,2.0,left,0.9756,,50.0,,0.0,1.0,Low,,,-29.68908614,-0.02470261264037181
33,57a761c22fc0d400012c9656,3.0,6.0,left,2.5944,2.6753,50.0,29.37471962,0.0,1.0,Medium,0.4157308493597541,-20.62528038,-20.62528038,0.9533552760109711
34,57a761c22fc0d400012c9656,4.0,8.0,left,2.2766,,50.0,,0.0,1.0,High,,,-20.62528038,0.8226831019089793
35,57a761c22fc0d400012c9656,5.0,8.0,left,0.2944,,50.0,,0.0,1.0,High,,,-20.62528038,-1.222815892127416
36,57a761c22fc0d400012c9656,6.0,5.0,left,0.3503,2.5379,17.0,36.86772359,0.0,1.0,Medium,1.693056355638847,19.867723589999997,19.867723589999997,-1.0489653487786958
37,57a761c22fc0d400012c9656,7.0,4.0,left,0.4456,,25.0,,0.0,1.0,Medium,,,19.867723589999997,-0.8083335903690628
38,57a761c22fc0d400012c9656,8.0,4.0,left,2.9474,,50.0,,0.0,1.0,Medium,,,19.867723589999997,1.0809234257970255
39,57a761c22fc0d400012c9656,9.0,6.0,left,0.5339,2.4747,50.0,31.76783665,0.0,1.0,Medium,0.8236833119726719,-18.23216335,-18.23216335,-0.6275467234759964
40,57a761c22fc0d400012c9656,10.0,9.0,left,8.9482,,40.0,,0.0,1.0,High,,,-18.23216335,2.1914523947415283
41,57a761c22fc0d400012c9656,11.0,2.0,left,0.3989,3.3774,7.0,25.76571109,0.0,1.0,Low,-0.19949352075996674,18.76571109,18.76571109,-0.9190445200707762
42,57a761c22fc0d400012c9656,12.0,5.0,left,3.947,,50.0,,0.0,1.0,Medium,,,18.76571109,1.37295579668071
43,57a761c22fc0d400012c9656,13.0,8.0,left,0.8745,,41.0,,0.0,1.0,High,,,18.76571109,-0.13410298452348024
44,57a761c22fc0d400012c9656,14.0,3.0,left,1.037,2.7354,50.0,17.94330023,0.0,1.0,Low,-1.532972717097905,-32.05669977,-32.05669977,0.036331929247390204
45,57a761c22fc0d400012c9656,15.0,9.0,left,1.0178,,50.0,,0.0,1.0,High,,,-32.05669977,0.01764343517259528
46,57a761c22fc0d400012c9656,16.0,5.0,left,2.519,,50.0,,0.0,1.0,Medium,,,-32.05669977,0.9238619973704731
47,57a761c22fc0d400012c9656,17.0,4.0,left,0.5512,,19.0,,0.0,1.0,Medium,,,-32.05669977,-0.5956575592826882
48,57a761c22fc0d400012c9656,18.0,7.0,left,0.3982,2.427,7.0,35.98934125,0.0,1.0,High,1.5433193247178414,28.989341250000003,28.989341250000003,-0.9208008873520411
49,57a761c22fc0d400012c9656,19.0,3.0,left,0.6093,,50.0,,0.0,1.0,Low,,,28.989341250000003,-0.49544452172768844
50,57a761c22fc0d400012c9656,20.0,4.0,left,2.9014,2.7534,50.0,21.04253992,0.0,1.0,Medium,-1.0046481730353036,-28.95746008,-28.95746008,1.0651933791226649
51,57a761c22fc0d400012c9656,21.0,6.0,left,16.8691,,50.0,,0.0,1.0,Medium,,,-28.95746008,2.825483545994275
52,57a761c22fc0d400012c9656,22.0,7.0,left,2.0839,,23.0,,0.0,1.0,High,,,-28.95746008,0.7342411380949069
53,57a761c22fc0d400012c9656,23.0,5.0,left,1.1318,5.9128,50.0,21.84699629,0.0,1.0,Medium,-0.8675132343373207,-28.15300371,-28.15300371,0.12380928572628633
54,57a761c22fc0d400012c9656,24.0,7.0,left,0.9751,,50.0,,0.0,1.0,High,,,-28.15300371,-0.025215249141063763
55,57a761c22fc0d400012c9656,25.0,3.0,left,1.1989,2.254,50.0,21.24501731,0.0,1.0,Low,-0.970132038287837,-28.75498269,-28.75498269,0.18140446973147095
56,57a761c22fc0d400012c9656,26.0,6.0,left,4.2167,,36.0,,0.0,1.0,Medium,,,-28.75498269,1.4390528316125142
57,57a761c22fc0d400012c9656,27.0,1.0,left,11.815,,40.0,,0.0,1.0,Low,,,-28.75498269,2.469369910638871
58,57a761c22fc0d400012c9656,28.0,2.0,left,11.3839,,22.0,,0.0,1.0,Low,,,-28.75498269,2.432200076490361
59,57a761c22fc0d400012c9656,29.0,1.0,left,3.6147,4.5446,50.0,21.95874846,0.0,1.0,Low,-0.8484629445343866,-28.04125154,-28.04125154,1.2850088646152034
0,57c137bf5b8c510001af5981,0.0,5.0,left,2.4679,,50.0,,0.0,1.0,Medium,,,,0.9033675865836656
1,57c137bf5b8c510001af5981,1.0,5.0,left,0.6123,,11.0,,0.0,1.0,Medium,,,,-0.49053292049822833
2,57c137bf5b8c510001af5981,2.0,7.0,left,0.9479,,50.0,,0.0,1.0,High,,,,-0.053506267523141166
3,57c137bf5b8c510001af5981,3.0,2.0,right,1.9573,3.6099,8.0,18.0,1.0,0.0,Low,-0.8173672646985783,10.0,10.0,0.6715659725263411
4,57c137bf5b8c510001af5981,4.0,6.0,left,0.9036,,6.0,,0.0,1.0,Medium,,,10.0,-0.10136849438828889
5,57c137bf5b8c510001af5981,5.0,6.0,left,0.709,,13.0,,0.0,1.0,Medium,,,10.0,-0.3438997524500096
6,57c137bf5b8c510001af5981,6.0,8.0,left,0.5771,4.0746,50.0,35.0,0.0,1.0,High,1.4793671980908152,-15.0,-15.0,-0.5497397172652164
7,57c137bf5b8c510001af5981,7.0,7.0,left,0.64,,18.0,,0.0,1.0,High,,,-15.0,-0.4462871026284195
8,57c137bf5b8c510001af5981,8.0,7.0,left,0.4594,2.4822,24.0,34.0,0.0,1.0,High,1.3442651708679096,10.0,10.0,-0.7778339887271393
9,57c137bf5b8c510001af5981,9.0,9.0,left,0.799,,20.0,,0.0,1.0,High,,,10.0,-0.22439433321586233
10,57c137bf5b8c510001af5981,10.0,8.0,left,1.2581,,7.0,,0.0,1.0,High,,,10.0,0.22960264637494815
11,57c137bf5b8c510001af5981,11.0,3.0,left,2.5321,2.1902,50.0,30.0,0.0,1.0,Low,0.8038570619762876,-20.0,-20.0,0.9290489979728177
12,57c137bf5b8c510001af5981,12.0,4.0,left,1.0519,,34.0,,0.0,1.0,Medium,,,-20.0,0.050598052763091435
13,57c137bf5b8c510001af5981,13.0,8.0,left,0.5975,,39.0,,0.0,1.0,High,,,-20.0,-0.5150009951764712
14,57c137bf5b8c510001af5981,14.0,2.0,right,1.0009,2.4574,50.0,30.0,1.0,0.0,Low,0.8038570619762876,-20.0,-20.0,0.0008995952428359939
15,57c137bf5b8c510001af5981,15.0,2.0,right,1.1656,,23.0,,1.0,0.0,Low,,,-20.0,0.153235975898858
16,57c137bf5b8c510001af5981,16.0,1.0,right,0.8415,,17.0,,1.0,0.0,Low,,,-20.0,-0.1725692653512763
17,57c137bf5b8c510001af5981,17.0,3.0,left,0.9337,,50.0,,0.0,1.0,Low,,,-20.0,-0.06860009149225688
18,57c137bf5b8c510001af5981,18.0,3.0,left,0.5909,2.3596,23.0,8.0,0.0,1.0,Low,-2.1683875369276335,-15.0,-15.0,-0.5261084806305082
19,57c137bf5b8c510001af5981,19.0,6.0,left,0.5853,,12.0,,0.0,1.0,Medium,,,-15.0,-0.5356307426849618
20,57c137bf5b8c510001af5981,20.0,4.0,left,0.7466,,50.0,,0.0,1.0,Medium,,,-15.0,-0.2922257125016535
21,57c137bf5b8c510001af5981,21.0,1.0,right,0.7872,2.4822,48.0,25.0,1.0,0.0,Low,0.12834692586176014,-23.0,-23.0,-0.23927293324409338
22,57c137bf5b8c510001af5981,22.0,5.0,left,0.7881,,50.0,,0.0,1.0,Medium,,,-23.0,-0.23813029362253316
23,57c137bf5b8c510001af5981,23.0,9.0,left,0.5905,1.9541,14.0,29.0,0.0,1.0,High,0.6687550347533822,15.0,15.0,-0.52678564334472
24,57c137bf5b8c510001af5981,24.0,6.0,left,0.5787,,33.0,,0.0,1.0,Medium,,,15.0,-0.5469710704023439
25,57c137bf5b8c510001af5981,25.0,5.0,left,0.7178,,22.0,,0.0,1.0,Medium,,,15.0,-0.33156430026863015
26,57c137bf5b8c510001af5981,26.0,4.0,left,0.6547,,50.0,,0.0,1.0,Medium,,,15.0,-0.4235781635350914
27,57c137bf5b8c510001af5981,27.0,4.0,left,0.584,2.0719,50.0,25.0,0.0,1.0,Medium,0.12834692586176014,-25.0,-25.0,-0.53785429615391
28,57c137bf5b8c510001af5981,28.0,5.0,left,1.9422,,36.0,,0.0,1.0,Medium,,,-25.0,0.6638213511781166
29,57c137bf5b8c510001af5981,29.0,5.0,left,0.6065,1.6145,39.0,24.0,0.0,1.0,Medium,-0.006755101361145371,-15.0,-15.0,-0.5000505505980322
30,57c137bf5b8c510001af5981,0.0,5.0,left,0.7434,,50.0,,0.0,1.0,Medium,,,-15.0,-0.2965210211189854
31,57c137bf5b8c510001af5981,1.0,6.0,left,0.5929,,50.0,,0.0,1.0,Medium,,,-15.0,-0.522729528268815
32,57c137bf5b8c510001af5981,2.0,9.0,left,0.5787,,50.0,,0.0,1.0,High,,,-15.0,-0.5469710704023439
33,57c137bf5b8c510001af5981,3.0,6.0,left,0.7401,3.345,50.0,25.0,0.0,1.0,Medium,0.12834692586176014,-25.0,-25.0,-0.30096996677871635
34,57c137bf5b8c510001af5981,4.0,4.0,left,0.615,,43.0,,0.0,1.0,Medium,,,-25.0,-0.4861330111756192
35,57c137bf5b8c510001af5981,5.0,6.0,left,0.5361,,50.0,,0.0,1.0,Medium,,,-25.0,-0.623434568148645
36,57c137bf5b8c510001af5981,6.0,1.0,right,0.7267,1.7528,50.0,25.0,1.0,0.0,Low,0.12834692586176014,-25.0,-25.0,-0.3192415413595468
37,57c137bf5b8c510001af5981,7.0,7.0,left,0.6642,,50.0,,0.0,1.0,High,,,-25.0,-0.40917197003949085
38,57c137bf5b8c510001af5981,8.0,8.0,left,0.5632,2.2078,50.0,30.0,0.0,1.0,High,0.8038570619762876,-20.0,-20.0,-0.5741204741383044
39,57c137bf5b8c510001af5981,9.0,2.0,right,1.0434,,47.0,,1.0,0.0,Low,,,-20.0,0.042484611606155395
40,57c137bf5b8c510001af5981,10.0,7.0,left,0.6393,,50.0,,0.0,1.0,High,,,-20.0,-0.44738145120945594
41,57c137bf5b8c510001af5981,11.0,4.0,left,0.8695,2.5179,50.0,30.0,0.0,1.0,Medium,0.8038570619762876,-20.0,-20.0,-0.13983694518779927
42,57c137bf5b8c510001af5981,12.0,3.0,left,1.0518,,50.0,,0.0,1.0,Low,,,-20.0,0.05050298217310683
43,57c137bf5b8c510001af5981,13.0,8.0,left,0.8228,,27.0,,0.0,1.0,High,,,-20.0,-0.19504212120333497
44,57c137bf5b8c510001af5981,14.0,5.0,right,1.1155,1.8106,7.0,12.0,1.0,0.0,Medium,-1.6279794280360114,5.0,5.0,0.10930273489045009
45,57c137bf5b8c510001af5981,15.0,9.0,left,0.6288,,50.0,,0.0,1.0,High,,,5.0,-0.4639420378671402
46,57c137bf5b8c510001af5981,16.0,5.0,left,0.655,,50.0,,0.0,1.0,Medium,,,5.0,-0.4231200433468851
47,57c137bf5b8c510001af5981,17.0,6.0,left,0.4447,,50.0,,0.0,1.0,Medium,,,5.0,-0.8103553814654864
48,57c137bf5b8c510001af5981,18.0,2.0,right,1.241,1.8497,15.0,10.0,1.0,0.0,Low,-1.8981834824818224,-5.0,-5.0,0.21591750622247025
49,57c137bf5b8c510001af5981,19.0,8.0,left,0.6046,,41.0,,0.0,1.0,High,,,-5.0,-0.5031881966367794
50,57c137bf5b8c510001af5981,20.0,2.0,right,0.7714,,50.0,,1.0,0.0,Low,,,-5.0,-0.2595482332080097
51,57c137bf5b8c510001af5981,21.0,4.0,left,1.0086,1.5955,32.0,22.0,0.0,1.0,Medium,-0.27695915580695635,-10.0,-10.0,0.008563230660487814
52,57c137bf5b8c510001af5981,22.0,1.0,right,0.695,,41.0,,1.0,0.0,Low,,,-10.0,-0.363843433417345
53,57c137bf5b8c510001af5981,23.0,3.0,left,2.0337,1.8038,50.0,25.0,0.0,1.0,Low,0.12834692586176014,-25.0,-25.0,0.7098567941228926
54,57c137bf5b8c510001af5981,24.0,3.0,left,0.5561,,48.0,,0.0,1.0,Low,,,-25.0,-0.5868071447886187
55,57c137bf5b8c510001af5981,25.0,7.0,left,0.6882,,37.0,,0.0,1.0,High,,,-25.0,-0.373675785618757
56,57c137bf5b8c510001af5981,26.0,5.0,left,1.9084,,37.0,,0.0,1.0,Medium,,,-25.0,0.6462651946598149
57,57c137bf5b8c510001af5981,27.0,5.0,left,0.5841,1.5157,33.0,23.0,0.0,1.0,Medium,-0.14185712858405086,-10.0,-10.0,-0.5376830779358734
58,57c137bf5b8c510001af5981,28.0,5.0,left,2.0024,,37.0,,0.0,1.0,Medium,,,-10.0,0.6943464611354275
59,57c137bf5b8c510001af5981,29.0,4.0,left,0.7367,1.6201,36.0,21.0,0.0,1.0,Medium,-0.4120611830298619,-15.0,-15.0,-0.3055745252933691
0,57d02ffb596f5d0001df741f,0.0,5.0,left,1.0454,,38.0,,0.0,1.0,Medium,,,,0.044399587296684515
1,57d02ffb596f5d0001df741f,1.0,9.0,left,0.812,,46.0,,0.0,1.0,High,,,,-0.20825493882045903
