"","pid","id.x","block_order","reversal_timings","id.y","run","block","block_type","trial_num","cue_time","action","action_time","reward","reward_time","rt","craving_rating","mood_rating","pid_db","trial","reversal","choice","opt_act","opt"
"1","54e32a60fdf99b3eae9de85b",73,"['numberbar_pos', 'numberbar_mixed', 'numberbar_neg']","B",6281,"3","block_one","numberbar_pos",1,1677868485.314,0,1677868485.782,0,1677868488.814,0.468000173568726,-1,-1,54,1,0,1,1,1
"2","54e32a60fdf99b3eae9de85b",73,"['numberbar_pos', 'numberbar_mixed', 'numberbar_neg']","B",6282,"3","block_one","numberbar_pos",2,1677868489.815,1,1677868490.064,0,1677868493.081,0.248999834060669,-1,-1,54,2,0,0,1,0
"3","54e32a60fdf99b3eae9de85b",73,"['numberbar_pos', 'numberbar_mixed', 'numberbar_neg']","B",6284,"3","block_one","numberbar_pos",3,1677868494.082,1,1677868494.766,0,1677868497.8,0.684000015258789,-1,-1,54,3,0,0,1,0
"4","54e32a60fdf99b3eae9de85b",73,"['numberbar_pos', 'numberbar_mixed', 'numberbar_neg']","B",6285,"3","block_one","numberbar_pos",4,1677868498.817,0,1677868499.1,0,1677868502.118,0.282999992370605,-1,-1,54,4,0,1,1,1
"5","54e32a60fdf99b3eae9de85b",73,"['numberbar_pos', 'numberbar_mixed', 'numberbar_neg']","B",6288,"3","block_one","numberbar_pos",5,1677868503.135,0,1677868504.12,1,1677868507.137,0.984999895095825,-1,-1,54,5,0,1,1,1
"6","54e32a60fdf99b3eae9de85b",73,"['numberbar_pos', 'numberbar_mixed', 'numberbar_neg']","B",6289,"3","block_one","numberbar_pos",6,1677868508.139,0,1677868508.37,1,1677868511.405,0.230999946594238,-1,-1,54,6,0,1,1,1
"7","54e32a60fdf99b3eae9de85b",73,"['numberbar_pos', 'numberbar_mixed', 'numberbar_neg']","B",6291,"3","block_one","numberbar_pos",7,1677868512.405,0,1677868513.193,1,1677868516.224,0.788000106811523,-1,-1,54,7,0,1,1,1
"8","54e32a60fdf99b3eae9de85b",73,"['numberbar_pos', 'numberbar_mixed', 'numberbar_neg']","B",6293,"3","block_one","numberbar_pos",8,1677868517.24,0,1677868517.331,1,1677868520.325,0.0910000801086426,-1,-1,54,8,0,1,1,1
"9","54e32a60fdf99b3eae9de85b",73,"['numberbar_pos', 'numberbar_mixed', 'numberbar_neg']","B",6295,"3","block_one","numberbar_pos",9,1677868521.325,0,1677868522.209,0,1677868525.21,0.884000062942505,-1,-1,54,9,0,1,1,1
"10","54e32a60fdf99b3eae9de85b",73,"['numberbar_pos', 'numberbar_mixed', 'numberbar_neg']","B",6297,"3","block_one","numberbar_pos",10,1677868526.21,1,1677868526.744,1,1677868529.779,0.533999919891357,-1,-1,54,10,0,0,1,0
"11","54e32a60fdf99b3eae9de85b",73,"['numberbar_pos', 'numberbar_mixed', 'numberbar_neg']","B",6299,"3","block_one","numberbar_pos",11,1677868530.796,1,1677868530.979,0,1677868534.013,0.183000087738037,-1,-1,54,11,0,0,1,0
"12","54e32a60fdf99b3eae9de85b",73,"['numberbar_pos', 'numberbar_mixed', 'numberbar_neg']","B",6301,"3","block_one","numberbar_pos",12,1677868534.997,1,1677868535.566,0,1677868538.582,0.569000005722046,-1,-1,54,12,0,0,1,0
"13","54e32a60fdf99b3eae9de85b",73,"['numberbar_pos', 'numberbar_mixed', 'numberbar_neg']","B",6303,"3","block_one","numberbar_pos",13,1677868539.6,1,1677868539.765,1,1677868542.768,0.165000200271606,-1,-1,54,13,1,0,1,0
"14","54e32a60fdf99b3eae9de85b",73,"['numberbar_pos', 'numberbar_mixed', 'numberbar_neg']","B",6305,"3","block_one","numberbar_pos",14,1677868543.767,1,1677868544.471,1,1677868547.493,0.703999996185303,-1,-1,54,14,0,0,0,1
"15","54e32a60fdf99b3eae9de85b",73,"['numberbar_pos', 'numberbar_mixed', 'numberbar_neg']","B",6307,"3","block_one","numberbar_pos",15,1677868548.485,1,1677868549.904,0,1677868552.921,1.41900014877319,-1,-1,54,15,0,0,0,1
"16","54e32a60fdf99b3eae9de85b",73,"['numberbar_pos', 'numberbar_mixed', 'numberbar_neg']","B",6309,"3","block_one","numberbar_pos",16,1677868553.921,1,1677868554.604,1,1677868557.63,0.683000087738037,-1,-1,54,16,0,0,0,1
"17","54e32a60fdf99b3eae9de85b",73,"['numberbar_pos', 'numberbar_mixed', 'numberbar_neg']","B",6311,"3","block_one","numberbar_pos",17,1677868558.64,1,1677868559.406,1,1677868562.424,0.765999794006348,-1,-1,54,17,0,0,0,1
"18","54e32a60fdf99b3eae9de85b",73,"['numberbar_pos', 'numberbar_mixed', 'numberbar_neg']","B",6313,"3","block_one","numberbar_pos",18,1677868563.425,0,1677868564.425,0,1677868567.476,1,-1,-1,54,18,0,1,0,0
"19","54e32a60fdf99b3eae9de85b",73,"['numberbar_pos', 'numberbar_mixed', 'numberbar_neg']","B",6315,"3","block_one","numberbar_pos",19,1677868568.493,0,1677868568.694,0,1677868571.711,0.200999975204468,-1,-1,54,19,0,1,0,0
"20","54e32a60fdf99b3eae9de85b",73,"['numberbar_pos', 'numberbar_mixed', 'numberbar_neg']","B",6317,"3","block_one","numberbar_pos",20,1677868572.729,1,1677868574.014,1,1677868577.029,1.28499984741211,-1,-1,54,20,0,0,0,1
"21","54e32a60fdf99b3eae9de85b",73,"['numberbar_pos', 'numberbar_mixed', 'numberbar_neg']","B",6320,"3","block_one","numberbar_pos",21,1677868578.047,1,1677868580.598,0,1677868583.632,2.55100011825562,-1,-1,54,21,0,0,0,1
"22","54e32a60fdf99b3eae9de85b",73,"['numberbar_pos', 'numberbar_mixed', 'numberbar_neg']","B",6322,"3","block_one","numberbar_pos",22,1677868584.649,1,1677868586.8,0,1677868589.818,2.15100002288818,-1,-1,54,22,0,0,0,1
"23","54e32a60fdf99b3eae9de85b",73,"['numberbar_pos', 'numberbar_mixed', 'numberbar_neg']","B",6324,"3","block_one","numberbar_pos",23,1677868590.819,1,1677868595.704,1,1677868598.739,4.88499999046326,-1,-1,54,23,0,0,0,1
"24","54e32a60fdf99b3eae9de85b",73,"['numberbar_pos', 'numberbar_mixed', 'numberbar_neg']","B",6326,"3","block_one","numberbar_pos",24,1677868599.755,1,1677868601.972,0,1677868605.006,2.21699976921082,-1,-1,54,24,0,0,0,1
"25","54e32a60fdf99b3eae9de85b",73,"['numberbar_pos', 'numberbar_mixed', 'numberbar_neg']","B",6328,"3","block_one","numberbar_pos",25,1677868606.026,1,1677868607.341,0,1677868610.375,1.31500005722046,-1,-1,54,25,1,0,0,1
"26","54e32a60fdf99b3eae9de85b",73,"['numberbar_pos', 'numberbar_mixed', 'numberbar_neg']","B",6329,"3","block_one","numberbar_pos",26,1677868611.376,1,1677868611.976,0,1677868614.978,0.600000143051147,-1,-1,54,26,0,0,1,0
"27","54e32a60fdf99b3eae9de85b",73,"['numberbar_pos', 'numberbar_mixed', 'numberbar_neg']","B",6330,"3","block_one","numberbar_pos",27,1677868615.977,0,1677868616.629,1,1677868619.663,0.651999950408936,-1,-1,54,27,0,1,1,1
"28","54e32a60fdf99b3eae9de85b",73,"['numberbar_pos', 'numberbar_mixed', 'numberbar_neg']","B",6331,"3","block_one","numberbar_pos",28,1677868620.663,0,1677868621.162,1,1677868624.182,0.498999834060669,-1,-1,54,28,0,1,1,1
"29","54e32a60fdf99b3eae9de85b",73,"['numberbar_pos', 'numberbar_mixed', 'numberbar_neg']","B",6333,"3","block_one","numberbar_pos",29,1677868625.181,0,1677868625.492,1,1677868628.515,0.311000108718872,-1,-1,54,29,0,1,1,1
"30","54e32a60fdf99b3eae9de85b",73,"['numberbar_pos', 'numberbar_mixed', 'numberbar_neg']","B",6334,"3","block_one","numberbar_pos",30,1677868629.517,0,1677868629.832,1,1677868632.867,0.315000057220459,-1,-1,54,30,0,1,1,1
"31","54e32a60fdf99b3eae9de85b",73,"['numberbar_pos', 'numberbar_mixed', 'numberbar_neg']","B",6335,"3","block_one","numberbar_pos",31,1677868633.867,0,1677868635.935,1,1677868638.969,2.06799983978271,-1,-1,54,31,0,1,1,1
"32","54e32a60fdf99b3eae9de85b",73,"['numberbar_pos', 'numberbar_mixed', 'numberbar_neg']","B",6336,"3","block_one","numberbar_pos",32,1677868639.969,0,1677868640.254,1,1677868643.289,0.284999847412109,-1,-1,54,32,0,1,1,1
"33","54e32a60fdf99b3eae9de85b",73,"['numberbar_pos', 'numberbar_mixed', 'numberbar_neg']","B",6337,"3","block_one","numberbar_pos",33,1677868644.288,0,1677868645.872,1,1677868648.89,1.58399987220764,-1,-1,54,33,0,1,1,1
"34","54e32a60fdf99b3eae9de85b",73,"['numberbar_pos', 'numberbar_mixed', 'numberbar_neg']","B",6338,"3","block_one","numberbar_pos",34,1677868649.908,0,1677868650.444,1,1677868653.458,0.53600001335144,-1,-1,54,34,0,1,1,1
"35","54e32a60fdf99b3eae9de85b",73,"['numberbar_pos', 'numberbar_mixed', 'numberbar_neg']","B",6339,"3","block_one","numberbar_pos",35,1677868654.475,0,1677868655.542,0,1677868658.576,1.06700015068054,-1,-1,54,35,0,1,1,1
"36","54e32a60fdf99b3eae9de85b",73,"['numberbar_pos', 'numberbar_mixed', 'numberbar_neg']","B",6431,"3","block_three","numberbar_neg",1,1677868852.484,0,1677868853.32,1,1677868856.356,0.835999965667725,-1,-1,54,1,0,1,1,1
"37","54e32a60fdf99b3eae9de85b",73,"['numberbar_pos', 'numberbar_mixed', 'numberbar_neg']","B",6433,"3","block_three","numberbar_neg",2,1677868857.369,0,1677868857.619,1,1677868860.635,0.25,-1,-1,54,2,0,1,1,1
"38","54e32a60fdf99b3eae9de85b",73,"['numberbar_pos', 'numberbar_mixed', 'numberbar_neg']","B",6435,"3","block_three","numberbar_neg",3,1677868861.636,0,1677868861.935,1,1677868864.953,0.299000024795532,-1,-1,54,3,0,1,1,1
"39","54e32a60fdf99b3eae9de85b",73,"['numberbar_pos', 'numberbar_mixed', 'numberbar_neg']","B",6437,"3","block_three","numberbar_neg",4,1677868865.97,0,1677868866.821,0,1677868869.84,0.851000070571899,-1,-1,54,4,0,1,1,1
"40","54e32a60fdf99b3eae9de85b",73,"['numberbar_pos', 'numberbar_mixed', 'numberbar_neg']","B",6439,"3","block_three","numberbar_neg",5,1677868870.858,1,1677868871.341,1,1677868874.357,0.483000040054321,-1,-1,54,5,0,0,1,0
"41","54e32a60fdf99b3eae9de85b",73,"['numberbar_pos', 'numberbar_mixed', 'numberbar_neg']","B",6441,"3","block_three","numberbar_neg",6,1677868875.375,1,1677868875.473,1,1677868878.476,0.0980000495910645,-1,-1,54,6,0,0,1,0
"42","54e32a60fdf99b3eae9de85b",73,"['numberbar_pos', 'numberbar_mixed', 'numberbar_neg']","B",6443,"3","block_three","numberbar_neg",7,1677868879.476,1,1677868879.809,1,1677868882.844,0.33299994468689,-1,-1,54,7,0,0,1,0
"43","54e32a60fdf99b3eae9de85b",73,"['numberbar_pos', 'numberbar_mixed', 'numberbar_neg']","B",6445,"3","block_three","numberbar_neg",8,1677868883.844,1,1677868884.194,0,1677868887.215,0.349999904632568,-1,-1,54,8,0,0,1,0
"44","54e32a60fdf99b3eae9de85b",73,"['numberbar_pos', 'numberbar_mixed', 'numberbar_neg']","B",6447,"3","block_three","numberbar_neg",9,1677868888.236,1,1677868888.912,0,1677868891.93,0.675999879837036,-1,-1,54,9,0,0,1,0
"45","54e32a60fdf99b3eae9de85b",73,"['numberbar_pos', 'numberbar_mixed', 'numberbar_neg']","B",6449,"3","block_three","numberbar_neg",10,1677868892.931,0,1677868893.049,1,1677868896.065,0.118000030517578,-1,-1,54,10,0,1,1,1
"46","54e32a60fdf99b3eae9de85b",73,"['numberbar_pos', 'numberbar_mixed', 'numberbar_neg']","B",6452,"3","block_three","numberbar_neg",11,1677868897.082,0,1677868899.851,1,1677868902.884,2.76900005340576,-1,-1,54,11,0,1,1,1
"47","54e32a60fdf99b3eae9de85b",73,"['numberbar_pos', 'numberbar_mixed', 'numberbar_neg']","B",6454,"3","block_three","numberbar_neg",12,1677868903.885,0,1677868904.888,1,1677868907.92,1.00300002098083,-1,-1,54,12,0,1,1,1
"48","54e32a60fdf99b3eae9de85b",73,"['numberbar_pos', 'numberbar_mixed', 'numberbar_neg']","B",6456,"3","block_three","numberbar_neg",13,1677868908.92,0,1677868909.487,1,1677868912.49,0.566999912261963,-1,-1,54,13,1,1,1,1
"49","54e32a60fdf99b3eae9de85b",73,"['numberbar_pos', 'numberbar_mixed', 'numberbar_neg']","B",6458,"3","block_three","numberbar_neg",14,1677868913.508,0,1677868915.355,0,1677868918.39,1.84700012207031,-1,-1,54,14,0,1,0,0
"50","54e32a60fdf99b3eae9de85b",73,"['numberbar_pos', 'numberbar_mixed', 'numberbar_neg']","B",6460,"3","block_three","numberbar_neg",15,1677868919.39,0,1677868921.174,0,1677868924.196,1.78399991989136,-1,-1,54,15,0,1,0,0
"51","54e32a60fdf99b3eae9de85b",73,"['numberbar_pos', 'numberbar_mixed', 'numberbar_neg']","B",6463,"3","block_three","numberbar_neg",16,1677868925.192,1,1677868926.926,0,1677868929.945,1.73400020599365,-1,-1,54,16,0,0,0,1
"52","54e32a60fdf99b3eae9de85b",73,"['numberbar_pos', 'numberbar_mixed', 'numberbar_neg']","B",6466,"3","block_three","numberbar_neg",17,1677868930.945,0,1677868931.695,0,1677868934.714,0.75,-1,-1,54,17,0,1,0,0
"53","54e32a60fdf99b3eae9de85b",73,"['numberbar_pos', 'numberbar_mixed', 'numberbar_neg']","B",6470,"3","block_three","numberbar_neg",18,1677868935.715,0,1677868936.947,0,1677868939.981,1.23200011253357,-1,-1,54,18,0,1,0,0
"54","54e32a60fdf99b3eae9de85b",73,"['numberbar_pos', 'numberbar_mixed', 'numberbar_neg']","B",6475,"3","block_three","numberbar_neg",19,1677868940.983,0,1677868947.734,1,1677868950.768,6.75099992752075,-1,-1,54,19,0,1,0,0
"55","54e32a60fdf99b3eae9de85b",73,"['numberbar_pos', 'numberbar_mixed', 'numberbar_neg']","B",6480,"3","block_three","numberbar_neg",20,1677868951.77,0,1677868955.573,0,1677868958.588,3.80299997329712,-1,-1,54,20,0,1,0,0
"56","54e32a60fdf99b3eae9de85b",73,"['numberbar_pos', 'numberbar_mixed', 'numberbar_neg']","B",6482,"3","block_three","numberbar_neg",21,1677868959.588,1,1677868961.656,0,1677868964.692,2.06799983978271,-1,-1,54,21,0,0,0,1
"57","54e32a60fdf99b3eae9de85b",73,"['numberbar_pos', 'numberbar_mixed', 'numberbar_neg']","B",6486,"3","block_three","numberbar_neg",22,1677868965.711,1,1677868967.574,0,1677868970.592,1.86299991607666,-1,-1,54,22,0,0,0,1
"58","54e32a60fdf99b3eae9de85b",73,"['numberbar_pos', 'numberbar_mixed', 'numberbar_neg']","B",6489,"3","block_three","numberbar_neg",23,1677868971.592,0,1677868974.648,0,1677868977.679,3.05599999427795,-1,-1,54,23,0,1,0,0
"59","54e32a60fdf99b3eae9de85b",73,"['numberbar_pos', 'numberbar_mixed', 'numberbar_neg']","B",6493,"3","block_three","numberbar_neg",24,1677868978.68,0,1677868980.416,0,1677868983.431,1.73599982261658,-1,-1,54,24,0,1,0,0
"60","54e32a60fdf99b3eae9de85b",73,"['numberbar_pos', 'numberbar_mixed', 'numberbar_neg']","B",6496,"3","block_three","numberbar_neg",25,1677868984.432,1,1677868984.564,1,1677868987.582,0.131999969482422,-1,-1,54,25,1,0,0,1
"61","54e32a60fdf99b3eae9de85b",73,"['numberbar_pos', 'numberbar_mixed', 'numberbar_neg']","B",6498,"3","block_three","numberbar_neg",26,1677868988.582,1,1677868989.066,0,1677868992.085,0.483999967575073,-1,-1,54,26,0,0,1,0
"62","54e32a60fdf99b3eae9de85b",73,"['numberbar_pos', 'numberbar_mixed', 'numberbar_neg']","B",6500,"3","block_three","numberbar_neg",27,1677868993.084,1,1677868993.618,0,1677868996.669,0.533999919891357,-1,-1,54,27,0,0,1,0
"63","54e32a60fdf99b3eae9de85b",73,"['numberbar_pos', 'numberbar_mixed', 'numberbar_neg']","B",6504,"3","block_three","numberbar_neg",28,1677868997.687,1,1677869001.621,0,1677869004.64,3.93400001525879,-1,-1,54,28,0,0,1,0
"64","54e32a60fdf99b3eae9de85b",73,"['numberbar_pos', 'numberbar_mixed', 'numberbar_neg']","B",6508,"3","block_three","numberbar_neg",29,1677869005.639,1,1677869008.624,0,1677869011.658,2.9850001335144,-1,-1,54,29,0,0,1,0
"65","54e32a60fdf99b3eae9de85b",73,"['numberbar_pos', 'numberbar_mixed', 'numberbar_neg']","B",6512,"3","block_three","numberbar_neg",30,1677869012.678,0,1677869014.342,1,1677869017.377,1.66400003433228,-1,-1,54,30,0,1,1,1
"66","54e32a60fdf99b3eae9de85b",73,"['numberbar_pos', 'numberbar_mixed', 'numberbar_neg']","B",6515,"3","block_three","numberbar_neg",31,1677869018.377,0,1677869018.96,1,1677869022.013,0.58299994468689,-1,-1,54,31,0,1,1,1
"67","54e32a60fdf99b3eae9de85b",73,"['numberbar_pos', 'numberbar_mixed', 'numberbar_neg']","B",6518,"3","block_three","numberbar_neg",32,1677869023.029,0,1677869023.164,1,1677869026.077,0.134999990463257,-1,-1,54,32,0,1,1,1
"68","54e32a60fdf99b3eae9de85b",73,"['numberbar_pos', 'numberbar_mixed', 'numberbar_neg']","B",6521,"3","block_three","numberbar_neg",33,1677869027.08,0,1677869027.599,1,1677869030.616,0.519000053405762,-1,-1,54,33,0,1,1,1
"69","54e32a60fdf99b3eae9de85b",73,"['numberbar_pos', 'numberbar_mixed', 'numberbar_neg']","B",6524,"3","block_three","numberbar_neg",34,1677869031.633,0,1677869033.016,0,1677869036.034,1.38300013542175,-1,-1,54,34,0,1,1,1
"70","54e32a60fdf99b3eae9de85b",73,"['numberbar_pos', 'numberbar_mixed', 'numberbar_neg']","B",6527,"3","block_three","numberbar_neg",35,1677869037.05,0,1677869038.834,1,1677869041.853,1.78400015830994,-1,-1,54,35,0,1,1,1
"71","54e32a60fdf99b3eae9de85b",73,"['numberbar_pos', 'numberbar_mixed', 'numberbar_neg']","B",6342,"3","block_two","numberbar_mixed",1,1677868664.312,0,1677868666.236,0,1677868669.248,1.92400002479553,-1,-1,54,1,0,1,0,0
"72","54e32a60fdf99b3eae9de85b",73,"['numberbar_pos', 'numberbar_mixed', 'numberbar_neg']","B",6344,"3","block_two","numberbar_mixed",2,1677868670.247,1,1677868670.831,0,1677868673.87,0.584000110626221,-1,-1,54,2,0,0,0,1
"73","54e32a60fdf99b3eae9de85b",73,"['numberbar_pos', 'numberbar_mixed', 'numberbar_neg']","B",6346,"3","block_two","numberbar_mixed",3,1677868674.868,0,1677868675.7,0,1677868678.735,0.832000017166138,-1,-1,54,3,0,1,0,0
"74","54e32a60fdf99b3eae9de85b",73,"['numberbar_pos', 'numberbar_mixed', 'numberbar_neg']","B",6348,"3","block_two","numberbar_mixed",4,1677868679.752,1,1677868680.418,0,1677868683.438,0.665999889373779,-1,-1,54,4,0,0,0,1
"75","54e32a60fdf99b3eae9de85b",73,"['numberbar_pos', 'numberbar_mixed', 'numberbar_neg']","B",6350,"3","block_two","numberbar_mixed",5,1677868684.436,0,1677868685.203,0,1677868688.222,0.766999959945679,-1,-1,54,5,0,1,0,0
"76","54e32a60fdf99b3eae9de85b",73,"['numberbar_pos', 'numberbar_mixed', 'numberbar_neg']","B",6352,"3","block_two","numberbar_mixed",6,1677868689.224,1,1677868689.339,1,1677868692.355,0.115000009536743,-1,-1,54,6,0,0,0,1
"77","54e32a60fdf99b3eae9de85b",73,"['numberbar_pos', 'numberbar_mixed', 'numberbar_neg']","B",6354,"3","block_two","numberbar_mixed",7,1677868693.359,1,1677868693.906,1,1677868696.941,0.546999931335449,-1,-1,54,7,0,0,0,1
"78","54e32a60fdf99b3eae9de85b",73,"['numberbar_pos', 'numberbar_mixed', 'numberbar_neg']","B",6356,"3","block_two","numberbar_mixed",8,1677868697.96,1,1677868698.208,1,1677868701.242,0.247999906539917,-1,-1,54,8,0,0,0,1
"79","54e32a60fdf99b3eae9de85b",73,"['numberbar_pos', 'numberbar_mixed', 'numberbar_neg']","B",6358,"3","block_two","numberbar_mixed",9,1677868702.245,1,1677868702.376,1,1677868705.344,0.13100004196167,-1,-1,54,9,0,0,0,1
"80","54e32a60fdf99b3eae9de85b",73,"['numberbar_pos', 'numberbar_mixed', 'numberbar_neg']","B",6360,"3","block_two","numberbar_mixed",10,1677868706.345,1,1677868706.996,1,1677868710.029,0.651000022888184,-1,-1,54,10,0,0,0,1
"81","54e32a60fdf99b3eae9de85b",73,"['numberbar_pos', 'numberbar_mixed', 'numberbar_neg']","B",6361,"3","block_two","numberbar_mixed",11,1677868711.03,1,1677868712.647,1,1677868715.664,1.61700010299683,-1,-1,54,11,0,0,0,1
"82","54e32a60fdf99b3eae9de85b",73,"['numberbar_pos', 'numberbar_mixed', 'numberbar_neg']","B",6363,"3","block_two","numberbar_mixed",12,1677868716.682,1,1677868718.582,1,1677868721.617,1.90000009536743,-1,-1,54,12,0,0,0,1
"83","54e32a60fdf99b3eae9de85b",73,"['numberbar_pos', 'numberbar_mixed', 'numberbar_neg']","B",6365,"3","block_two","numberbar_mixed",13,1677868722.617,1,1677868723.534,1,1677868726.535,0.916999816894531,-1,-1,54,13,1,0,0,1
"84","54e32a60fdf99b3eae9de85b",73,"['numberbar_pos', 'numberbar_mixed', 'numberbar_neg']","B",6367,"3","block_two","numberbar_mixed",14,1677868727.552,1,1677868727.888,0,1677868730.906,0.335999965667725,-1,-1,54,14,0,0,1,0
"85","54e32a60fdf99b3eae9de85b",73,"['numberbar_pos', 'numberbar_mixed', 'numberbar_neg']","B",6369,"3","block_two","numberbar_mixed",15,1677868731.922,1,1677868733.639,1,1677868736.656,1.71700000762939,-1,-1,54,15,0,0,1,0
"86","54e32a60fdf99b3eae9de85b",73,"['numberbar_pos', 'numberbar_mixed', 'numberbar_neg']","B",6371,"3","block_two","numberbar_mixed",16,1677868737.677,1,1677868738.289,0,1677868741.307,0.611999988555908,-1,-1,54,16,0,0,1,0
"87","54e32a60fdf99b3eae9de85b",73,"['numberbar_pos', 'numberbar_mixed', 'numberbar_neg']","B",6373,"3","block_two","numberbar_mixed",17,1677868742.324,1,1677868743.141,1,1677868746.175,0.817000150680542,-1,-1,54,17,0,0,1,0
"88","54e32a60fdf99b3eae9de85b",73,"['numberbar_pos', 'numberbar_mixed', 'numberbar_neg']","B",6375,"3","block_two","numberbar_mixed",18,1677868747.176,1,1677868748.661,0,1677868751.695,1.48499989509583,-1,-1,54,18,0,0,1,0
"89","54e32a60fdf99b3eae9de85b",73,"['numberbar_pos', 'numberbar_mixed', 'numberbar_neg']","B",6377,"3","block_two","numberbar_mixed",19,1677868752.712,1,1677868755.85,0,1677868758.865,3.13800001144409,-1,-1,54,19,0,0,1,0
"90","54e32a60fdf99b3eae9de85b",73,"['numberbar_pos', 'numberbar_mixed', 'numberbar_neg']","B",6378,"3","block_two","numberbar_mixed",20,1677868759.883,1,1677868761.052,0,1677868764.082,1.16900014877319,-1,-1,54,20,0,0,1,0
"91","54e32a60fdf99b3eae9de85b",73,"['numberbar_pos', 'numberbar_mixed', 'numberbar_neg']","B",6379,"3","block_two","numberbar_mixed",21,1677868765.103,0,1677868765.766,1,1677868768.786,0.663000106811523,-1,-1,54,21,0,1,1,1
"92","54e32a60fdf99b3eae9de85b",73,"['numberbar_pos', 'numberbar_mixed', 'numberbar_neg']","B",6382,"3","block_two","numberbar_mixed",22,1677868769.801,0,1677868770.218,1,1677868773.236,0.416999816894531,-1,-1,54,22,0,1,1,1
"93","54e32a60fdf99b3eae9de85b",73,"['numberbar_pos', 'numberbar_mixed', 'numberbar_neg']","B",6385,"3","block_two","numberbar_mixed",23,1677868774.253,0,1677868774.903,1,1677868777.94,0.650000095367432,-1,-1,54,23,0,1,1,1
"94","54e32a60fdf99b3eae9de85b",73,"['numberbar_pos', 'numberbar_mixed', 'numberbar_neg']","B",6388,"3","block_two","numberbar_mixed",24,1677868778.956,0,1677868780.525,1,1677868783.54,1.56900000572205,-1,-1,54,24,0,1,1,1
"95","54e32a60fdf99b3eae9de85b",73,"['numberbar_pos', 'numberbar_mixed', 'numberbar_neg']","B",6391,"3","block_two","numberbar_mixed",25,1677868784.558,0,1677868785.679,1,1677868788.692,1.12099981307983,-1,-1,54,25,1,1,1,1
"96","54e32a60fdf99b3eae9de85b",73,"['numberbar_pos', 'numberbar_mixed', 'numberbar_neg']","B",6394,"3","block_two","numberbar_mixed",26,1677868789.692,0,1677868791.726,0,1677868794.744,2.03400015830994,-1,-1,54,26,0,1,0,0
"97","54e32a60fdf99b3eae9de85b",73,"['numberbar_pos', 'numberbar_mixed', 'numberbar_neg']","B",6397,"3","block_two","numberbar_mixed",27,1677868795.76,0,1677868796.295,0,1677868799.329,0.535000085830688,-1,-1,54,27,0,1,0,0
"98","54e32a60fdf99b3eae9de85b",73,"['numberbar_pos', 'numberbar_mixed', 'numberbar_neg']","B",6401,"3","block_two","numberbar_mixed",28,1677868800.33,0,1677868801.746,1,1677868804.781,1.41600012779236,-1,-1,54,28,0,1,0,0
"99","54e32a60fdf99b3eae9de85b",73,"['numberbar_pos', 'numberbar_mixed', 'numberbar_neg']","B",6405,"3","block_two","numberbar_mixed",29,1677868805.799,0,1677868807.682,0,1677868810.699,1.88299989700317,-1,-1,54,29,0,1,0,0
"100","54e32a60fdf99b3eae9de85b",73,"['numberbar_pos', 'numberbar_mixed', 'numberbar_neg']","B",6408,"3","block_two","numberbar_mixed",30,1677868811.701,0,1677868812.888,1,1677868815.905,1.18700003623962,-1,-1,54,30,0,1,0,0
"101","54e32a60fdf99b3eae9de85b",73,"['numberbar_pos', 'numberbar_mixed', 'numberbar_neg']","B",6414,"3","block_two","numberbar_mixed",31,1677868816.919,0,1677868824.081,0,1677868827.105,7.16200017929077,-1,-1,54,31,0,1,0,0
"102","54e32a60fdf99b3eae9de85b",73,"['numberbar_pos', 'numberbar_mixed', 'numberbar_neg']","B",6417,"3","block_two","numberbar_mixed",32,1677868828.123,0,1677868829.541,1,1677868832.56,1.41799998283386,-1,-1,54,32,0,1,0,0
"103","54e32a60fdf99b3eae9de85b",73,"['numberbar_pos', 'numberbar_mixed', 'numberbar_neg']","B",6420,"3","block_two","numberbar_mixed",33,1677868833.576,0,1677868834.075,0,1677868837.093,0.499000072479248,-1,-1,54,33,0,1,0,0
"104","54e32a60fdf99b3eae9de85b",73,"['numberbar_pos', 'numberbar_mixed', 'numberbar_neg']","B",6423,"3","block_two","numberbar_mixed",34,1677868838.111,0,1677868838.627,0,1677868841.661,0.516000032424927,-1,-1,54,34,0,1,0,0
"105","54e32a60fdf99b3eae9de85b",73,"['numberbar_pos', 'numberbar_mixed', 'numberbar_neg']","B",6427,"3","block_two","numberbar_mixed",35,1677868842.661,1,1677868844.079,0,1677868847.13,1.41799998283386,-1,-1,54,35,0,0,0,1
"106","5590a34cfdf99b729d4f69dc",33,"['numberbar_pos', 'numberbar_neg', 'numberbar_mixed']","A",2037,"3","block_one","numberbar_pos",1,1677856063.962,1,1677856066.445,0,1677856069.46,2.48300004005432,-1,-1,5590,1,0,0,1,0
"107","5590a34cfdf99b729d4f69dc",33,"['numberbar_pos', 'numberbar_neg', 'numberbar_mixed']","A",2041,"3","block_one","numberbar_pos",2,1677856070.476,0,1677856071.609,1,1677856074.642,1.13299989700317,-1,-1,5590,2,0,1,1,1
"108","5590a34cfdf99b729d4f69dc",33,"['numberbar_pos', 'numberbar_neg', 'numberbar_mixed']","A",2044,"3","block_one","numberbar_pos",3,1677856075.641,0,1677856076.574,1,1677856079.607,0.932999849319458,-1,-1,5590,3,0,1,1,1
"109","5590a34cfdf99b729d4f69dc",33,"['numberbar_pos', 'numberbar_neg', 'numberbar_mixed']","A",2046,"3","block_one","numberbar_pos",4,1677856080.606,0,1677856081.939,1,1677856084.971,1.33299994468689,-1,-1,5590,4,0,1,1,1
"110","5590a34cfdf99b729d4f69dc",33,"['numberbar_pos', 'numberbar_neg', 'numberbar_mixed']","A",2050,"3","block_one","numberbar_pos",5,1677856085.988,0,1677856088.887,0,1677856091.919,2.89900016784668,-1,-1,5590,5,0,1,1,1
"111","5590a34cfdf99b729d4f69dc",33,"['numberbar_pos', 'numberbar_neg', 'numberbar_mixed']","A",2053,"3","block_one","numberbar_pos",6,1677856092.935,0,1677856093.885,1,1677856096.917,0.950000047683716,-1,-1,5590,6,0,1,1,1
"112","5590a34cfdf99b729d4f69dc",33,"['numberbar_pos', 'numberbar_neg', 'numberbar_mixed']","A",2058,"3","block_one","numberbar_pos",7,1677856097.917,0,1677856099.433,1,1677856102.466,1.51600003242493,-1,-1,5590,7,0,1,1,1
"113","5590a34cfdf99b729d4f69dc",33,"['numberbar_pos', 'numberbar_neg', 'numberbar_mixed']","A",2061,"3","block_one","numberbar_pos",8,1677856103.481,0,1677856103.982,1,1677856107.014,0.501000165939331,-1,-1,5590,8,0,1,1,1
"114","5590a34cfdf99b729d4f69dc",33,"['numberbar_pos', 'numberbar_neg', 'numberbar_mixed']","A",2064,"3","block_one","numberbar_pos",9,1677856108.03,0,1677856109.363,1,1677856112.396,1.33299994468689,-1,-1,5590,9,0,1,1,1
"115","5590a34cfdf99b729d4f69dc",33,"['numberbar_pos', 'numberbar_neg', 'numberbar_mixed']","A",2067,"3","block_one","numberbar_pos",10,1677856113.395,0,1677856115.677,1,1677856118.693,2.28200006484985,-1,-1,5590,10,0,1,1,1
"116","5590a34cfdf99b729d4f69dc",33,"['numberbar_pos', 'numberbar_neg', 'numberbar_mixed']","A",2071,"3","block_one","numberbar_pos",11,1677856119.71,0,1677856121.942,1,1677856124.975,2.23199987411499,-1,-1,5590,11,0,1,1,1
"117","5590a34cfdf99b729d4f69dc",33,"['numberbar_pos', 'numberbar_neg', 'numberbar_mixed']","A",2074,"3","block_one","numberbar_pos",12,1677856125.974,0,1677856126.274,1,1677856129.306,0.299999952316284,-1,-1,5590,12,1,1,1,1
"118","5590a34cfdf99b729d4f69dc",33,"['numberbar_pos', 'numberbar_neg', 'numberbar_mixed']","A",2077,"3","block_one","numberbar_pos",13,1677856130.323,0,1677856130.522,1,1677856133.555,0.199000120162964,-1,-1,5590,13,0,1,0,0
"119","5590a34cfdf99b729d4f69dc",33,"['numberbar_pos', 'numberbar_neg', 'numberbar_mixed']","A",2080,"3","block_one","numberbar_pos",14,1677856134.555,0,1677856136.223,0,1677856139.253,1.66799998283386,-1,-1,5590,14,0,1,0,0
"120","5590a34cfdf99b729d4f69dc",33,"['numberbar_pos', 'numberbar_neg', 'numberbar_mixed']","A",2083,"3","block_one","numberbar_pos",15,1677856140.269,0,1677856141.469,0,1677856144.485,1.20000004768372,-1,-1,5590,15,0,1,0,0
"121","5590a34cfdf99b729d4f69dc",33,"['numberbar_pos', 'numberbar_neg', 'numberbar_mixed']","A",2086,"3","block_one","numberbar_pos",16,1677856145.501,0,1677856146.367,0,1677856149.383,0.866000175476074,-1,-1,5590,16,0,1,0,0
"122","5590a34cfdf99b729d4f69dc",33,"['numberbar_pos', 'numberbar_neg', 'numberbar_mixed']","A",2089,"3","block_one","numberbar_pos",17,1677856150.383,1,1677856150.483,1,1677856153.515,0.100000143051147,-1,-1,5590,17,0,0,0,1
"123","5590a34cfdf99b729d4f69dc",33,"['numberbar_pos', 'numberbar_neg', 'numberbar_mixed']","A",2092,"3","block_one","numberbar_pos",18,1677856154.531,1,1677856154.731,1,1677856157.764,0.200000047683716,-1,-1,5590,18,0,0,0,1
"124","5590a34cfdf99b729d4f69dc",33,"['numberbar_pos', 'numberbar_neg', 'numberbar_mixed']","A",2095,"3","block_one","numberbar_pos",19,1677856158.763,1,1677856159.546,0,1677856162.579,0.782999992370605,-1,-1,5590,19,0,0,0,1
"125","5590a34cfdf99b729d4f69dc",33,"['numberbar_pos', 'numberbar_neg', 'numberbar_mixed']","A",2098,"3","block_one","numberbar_pos",20,1677856163.595,1,1677856163.712,1,1677856166.744,0.116999864578247,-1,-1,5590,20,0,0,0,1
"126","5590a34cfdf99b729d4f69dc",33,"['numberbar_pos', 'numberbar_neg', 'numberbar_mixed']","A",2102,"3","block_one","numberbar_pos",21,1677856167.76,1,1677856168.86,0,1677856171.892,1.09999990463257,-1,-1,5590,21,0,0,0,1
"127","5590a34cfdf99b729d4f69dc",33,"['numberbar_pos', 'numberbar_neg', 'numberbar_mixed']","A",2105,"3","block_one","numberbar_pos",22,1677856172.892,1,1677856173.592,1,1677856176.624,0.700000047683716,-1,-1,5590,22,0,0,0,1
"128","5590a34cfdf99b729d4f69dc",33,"['numberbar_pos', 'numberbar_neg', 'numberbar_mixed']","A",2108,"3","block_one","numberbar_pos",23,1677856177.64,1,1677856178.256,1,1677856181.272,0.615999937057495,-1,-1,5590,23,0,0,0,1
"129","5590a34cfdf99b729d4f69dc",33,"['numberbar_pos', 'numberbar_neg', 'numberbar_mixed']","A",2110,"3","block_one","numberbar_pos",24,1677856182.289,1,1677856183.022,1,1677856186.054,0.733000040054321,-1,-1,5590,24,1,0,0,1
"130","5590a34cfdf99b729d4f69dc",33,"['numberbar_pos', 'numberbar_neg', 'numberbar_mixed']","A",2112,"3","block_one","numberbar_pos",25,1677856187.07,1,1677856189.02,0,1677856192.052,1.95000004768372,-1,-1,5590,25,0,0,1,0
"131","5590a34cfdf99b729d4f69dc",33,"['numberbar_pos', 'numberbar_neg', 'numberbar_mixed']","A",2114,"3","block_one","numberbar_pos",26,1677856193.068,1,1677856194.001,0,1677856197.034,0.932999849319458,-1,-1,5590,26,0,0,1,0
"132","5590a34cfdf99b729d4f69dc",33,"['numberbar_pos', 'numberbar_neg', 'numberbar_mixed']","A",2116,"3","block_one","numberbar_pos",27,1677856198.033,0,1677856198.55,1,1677856201.582,0.516999959945679,-1,-1,5590,27,0,1,1,1
"133","5590a34cfdf99b729d4f69dc",33,"['numberbar_pos', 'numberbar_neg', 'numberbar_mixed']","A",2118,"3","block_one","numberbar_pos",28,1677856202.581,0,1677856204.581,0,1677856207.614,2,-1,-1,5590,28,0,1,1,1
"134","5590a34cfdf99b729d4f69dc",33,"['numberbar_pos', 'numberbar_neg', 'numberbar_mixed']","A",2120,"3","block_one","numberbar_pos",29,1677856208.613,0,1677856208.93,1,1677856211.945,0.317000150680542,-1,-1,5590,29,0,1,1,1
"135","5590a34cfdf99b729d4f69dc",33,"['numberbar_pos', 'numberbar_neg', 'numberbar_mixed']","A",2123,"3","block_one","numberbar_pos",30,1677856212.945,0,1677856213.378,1,1677856216.41,0.433000087738037,-1,-1,5590,30,0,1,1,1
"136","5590a34cfdf99b729d4f69dc",33,"['numberbar_pos', 'numberbar_neg', 'numberbar_mixed']","A",2128,"3","block_one","numberbar_pos",31,1677856217.41,0,1677856221.275,1,1677856224.308,3.86500000953674,-1,-1,5590,31,0,1,1,1
"137","5590a34cfdf99b729d4f69dc",33,"['numberbar_pos', 'numberbar_neg', 'numberbar_mixed']","A",2131,"3","block_one","numberbar_pos",32,1677856225.308,0,1677856225.508,1,1677856228.54,0.199999809265137,-1,-1,5590,32,0,1,1,1
"138","5590a34cfdf99b729d4f69dc",33,"['numberbar_pos', 'numberbar_neg', 'numberbar_mixed']","A",2134,"3","block_one","numberbar_pos",33,1677856229.557,0,1677856229.873,0,1677856232.905,0.315999984741211,-1,-1,5590,33,0,1,1,1
"139","5590a34cfdf99b729d4f69dc",33,"['numberbar_pos', 'numberbar_neg', 'numberbar_mixed']","A",2137,"3","block_one","numberbar_pos",34,1677856233.905,0,1677856234.038,0,1677856237.07,0.133000135421753,-1,-1,5590,34,0,1,1,1
"140","5590a34cfdf99b729d4f69dc",33,"['numberbar_pos', 'numberbar_neg', 'numberbar_mixed']","A",2140,"3","block_one","numberbar_pos",35,1677856238.07,0,1677856240.919,1,1677856243.952,2.84899997711182,-1,-1,5590,35,0,1,1,1
"141","5590a34cfdf99b729d4f69dc",33,"['numberbar_pos', 'numberbar_neg', 'numberbar_mixed']","A",2237,"3","block_three","numberbar_mixed",1,1677856436.885,1,1677856439.485,0,1677856442.517,2.59999990463257,-1,-1,5590,1,0,0,1,0
"142","5590a34cfdf99b729d4f69dc",33,"['numberbar_pos', 'numberbar_neg', 'numberbar_mixed']","A",2239,"3","block_three","numberbar_mixed",2,1677856443.533,0,1677856445.566,1,1677856448.581,2.03299999237061,-1,-1,5590,2,0,1,1,1
"143","5590a34cfdf99b729d4f69dc",33,"['numberbar_pos', 'numberbar_neg', 'numberbar_mixed']","A",2241,"3","block_three","numberbar_mixed",3,1677856449.598,0,1677856450.631,1,1677856453.646,1.03299999237061,-1,-1,5590,3,0,1,1,1
"144","5590a34cfdf99b729d4f69dc",33,"['numberbar_pos', 'numberbar_neg', 'numberbar_mixed']","A",2244,"3","block_three","numberbar_mixed",4,1677856454.646,0,1677856455.496,1,1677856458.528,0.850000143051147,-1,-1,5590,4,0,1,1,1
"145","5590a34cfdf99b729d4f69dc",33,"['numberbar_pos', 'numberbar_neg', 'numberbar_mixed']","A",2246,"3","block_three","numberbar_mixed",5,1677856459.544,0,1677856460.661,1,1677856463.693,1.11700010299683,-1,-1,5590,5,0,1,1,1
"146","5590a34cfdf99b729d4f69dc",33,"['numberbar_pos', 'numberbar_neg', 'numberbar_mixed']","A",2248,"3","block_three","numberbar_mixed",6,1677856464.694,0,1677856465.776,1,1677856468.809,1.08200001716614,-1,-1,5590,6,0,1,1,1
"147","5590a34cfdf99b729d4f69dc",33,"['numberbar_pos', 'numberbar_neg', 'numberbar_mixed']","A",2250,"3","block_three","numberbar_mixed",7,1677856469.808,0,1677856470.025,1,1677856473.057,0.217000007629395,-1,-1,5590,7,0,1,1,1
"148","5590a34cfdf99b729d4f69dc",33,"['numberbar_pos', 'numberbar_neg', 'numberbar_mixed']","A",2252,"3","block_three","numberbar_mixed",8,1677856474.056,0,1677856475.556,1,1677856478.572,1.5,-1,-1,5590,8,0,1,1,1
"149","5590a34cfdf99b729d4f69dc",33,"['numberbar_pos', 'numberbar_neg', 'numberbar_mixed']","A",2254,"3","block_three","numberbar_mixed",9,1677856479.572,0,1677856483.687,1,1677856486.719,4.11500000953674,-1,-1,5590,9,0,1,1,1
"150","5590a34cfdf99b729d4f69dc",33,"['numberbar_pos', 'numberbar_neg', 'numberbar_mixed']","A",2255,"3","block_three","numberbar_mixed",10,1677856487.718,0,1677856488.102,1,1677856491.135,0.384000062942505,-1,-1,5590,10,0,1,1,1
"151","5590a34cfdf99b729d4f69dc",33,"['numberbar_pos', 'numberbar_neg', 'numberbar_mixed']","A",2257,"3","block_three","numberbar_mixed",11,1677856492.134,0,1677856492.267,1,1677856495.3,0.132999897003174,-1,-1,5590,11,0,1,1,1
"152","5590a34cfdf99b729d4f69dc",33,"['numberbar_pos', 'numberbar_neg', 'numberbar_mixed']","A",2259,"3","block_three","numberbar_mixed",12,1677856496.316,0,1677856496.965,1,1677856499.998,0.648999929428101,-1,-1,5590,12,1,1,1,1
"153","5590a34cfdf99b729d4f69dc",33,"['numberbar_pos', 'numberbar_neg', 'numberbar_mixed']","A",2261,"3","block_three","numberbar_mixed",13,1677856500.999,0,1677856501.831,0,1677856504.863,0.832000017166138,-1,-1,5590,13,0,1,0,0
"154","5590a34cfdf99b729d4f69dc",33,"['numberbar_pos', 'numberbar_neg', 'numberbar_mixed']","A",2262,"3","block_three","numberbar_mixed",14,1677856505.863,0,1677856506.529,1,1677856509.562,0.666000127792358,-1,-1,5590,14,0,1,0,0
"155","5590a34cfdf99b729d4f69dc",33,"['numberbar_pos', 'numberbar_neg', 'numberbar_mixed']","A",2263,"3","block_three","numberbar_mixed",15,1677856510.578,0,1677856511.861,0,1677856514.893,1.28299999237061,-1,-1,5590,15,0,1,0,0
"156","5590a34cfdf99b729d4f69dc",33,"['numberbar_pos', 'numberbar_neg', 'numberbar_mixed']","A",2265,"3","block_three","numberbar_mixed",16,1677856515.893,0,1677856516.642,0,1677856519.675,0.749000072479248,-1,-1,5590,16,0,1,0,0
"157","5590a34cfdf99b729d4f69dc",33,"['numberbar_pos', 'numberbar_neg', 'numberbar_mixed']","A",2267,"3","block_three","numberbar_mixed",17,1677856520.674,1,1677856521.308,1,1677856524.34,0.634000062942505,-1,-1,5590,17,0,0,0,1
"158","5590a34cfdf99b729d4f69dc",33,"['numberbar_pos', 'numberbar_neg', 'numberbar_mixed']","A",2269,"3","block_three","numberbar_mixed",18,1677856525.34,1,1677856526.439,1,1677856529.471,1.09899997711182,-1,-1,5590,18,0,0,0,1
"159","5590a34cfdf99b729d4f69dc",33,"['numberbar_pos', 'numberbar_neg', 'numberbar_mixed']","A",2271,"3","block_three","numberbar_mixed",19,1677856530.488,1,1677856531.054,1,1677856534.087,0.565999984741211,-1,-1,5590,19,0,0,0,1
"160","5590a34cfdf99b729d4f69dc",33,"['numberbar_pos', 'numberbar_neg', 'numberbar_mixed']","A",2272,"3","block_three","numberbar_mixed",20,1677856535.186,1,1677856535.336,1,1677856538.368,0.149999856948853,-1,-1,5590,20,0,0,0,1
"161","5590a34cfdf99b729d4f69dc",33,"['numberbar_pos', 'numberbar_neg', 'numberbar_mixed']","A",2274,"3","block_three","numberbar_mixed",21,1677856539.384,1,1677856540.001,1,1677856543.034,0.616999864578247,-1,-1,5590,21,0,0,0,1
"162","5590a34cfdf99b729d4f69dc",33,"['numberbar_pos', 'numberbar_neg', 'numberbar_mixed']","A",2276,"3","block_three","numberbar_mixed",22,1677856544.033,1,1677856544.999,1,1677856548.032,0.966000080108643,-1,-1,5590,22,0,0,0,1
"163","5590a34cfdf99b729d4f69dc",33,"['numberbar_pos', 'numberbar_neg', 'numberbar_mixed']","A",2277,"3","block_three","numberbar_mixed",23,1677856549.031,1,1677856550.198,1,1677856553.23,1.16700005531311,-1,-1,5590,23,0,0,0,1
"164","5590a34cfdf99b729d4f69dc",33,"['numberbar_pos', 'numberbar_neg', 'numberbar_mixed']","A",2278,"3","block_three","numberbar_mixed",24,1677856554.246,1,1677856554.779,1,1677856557.795,0.532999992370605,-1,-1,5590,24,1,0,0,1
"165","5590a34cfdf99b729d4f69dc",33,"['numberbar_pos', 'numberbar_neg', 'numberbar_mixed']","A",2281,"3","block_three","numberbar_mixed",25,1677856558.812,1,1677856560.727,0,1677856563.76,1.91499996185303,-1,-1,5590,25,0,0,1,0
"166","5590a34cfdf99b729d4f69dc",33,"['numberbar_pos', 'numberbar_neg', 'numberbar_mixed']","A",2282,"3","block_three","numberbar_mixed",26,1677856564.776,1,1677856564.959,1,1677856567.992,0.183000087738037,-1,-1,5590,26,0,0,1,0
"167","5590a34cfdf99b729d4f69dc",33,"['numberbar_pos', 'numberbar_neg', 'numberbar_mixed']","A",2283,"3","block_three","numberbar_mixed",27,1677856569.008,1,1677856570.241,0,1677856573.273,1.23300004005432,-1,-1,5590,27,0,0,1,0
"168","5590a34cfdf99b729d4f69dc",33,"['numberbar_pos', 'numberbar_neg', 'numberbar_mixed']","A",2285,"3","block_three","numberbar_mixed",28,1677856574.273,1,1677856574.856,0,1677856577.872,0.58299994468689,-1,-1,5590,28,0,0,1,0
"169","5590a34cfdf99b729d4f69dc",33,"['numberbar_pos', 'numberbar_neg', 'numberbar_mixed']","A",2286,"3","block_three","numberbar_mixed",29,1677856578.888,0,1677856581.104,0,1677856584.135,2.21600008010864,-1,-1,5590,29,0,1,1,1
"170","5590a34cfdf99b729d4f69dc",33,"['numberbar_pos', 'numberbar_neg', 'numberbar_mixed']","A",2287,"3","block_three","numberbar_mixed",30,1677856585.152,0,1677856585.818,1,1677856588.851,0.666000127792358,-1,-1,5590,30,0,1,1,1
"171","5590a34cfdf99b729d4f69dc",33,"['numberbar_pos', 'numberbar_neg', 'numberbar_mixed']","A",2289,"3","block_three","numberbar_mixed",31,1677856589.866,0,1677856590.4,1,1677856593.433,0.534000158309937,-1,-1,5590,31,0,1,1,1
"172","5590a34cfdf99b729d4f69dc",33,"['numberbar_pos', 'numberbar_neg', 'numberbar_mixed']","A",2290,"3","block_three","numberbar_mixed",32,1677856594.449,0,1677856595.498,1,1677856598.53,1.04900002479553,-1,-1,5590,32,0,1,1,1
"173","5590a34cfdf99b729d4f69dc",33,"['numberbar_pos', 'numberbar_neg', 'numberbar_mixed']","A",2292,"3","block_three","numberbar_mixed",33,1677856599.547,0,1677856600.713,1,1677856603.745,1.16600012779236,-1,-1,5590,33,0,1,1,1
"174","5590a34cfdf99b729d4f69dc",33,"['numberbar_pos', 'numberbar_neg', 'numberbar_mixed']","A",2294,"3","block_three","numberbar_mixed",34,1677856604.761,0,1677856605.295,1,1677856608.327,0.534000158309937,-1,-1,5590,34,0,1,1,1
"175","5590a34cfdf99b729d4f69dc",33,"['numberbar_pos', 'numberbar_neg', 'numberbar_mixed']","A",2295,"3","block_three","numberbar_mixed",35,1677856609.343,0,1677856610.459,1,1677856613.492,1.11600017547607,-1,-1,5590,35,0,1,1,1
"176","5590a34cfdf99b729d4f69dc",33,"['numberbar_pos', 'numberbar_neg', 'numberbar_mixed']","A",2146,"3","block_two","numberbar_neg",1,1677856250.433,0,1677856251.083,0,1677856254.114,0.649999856948853,-1,-1,5590,1,0,1,0,0
"177","5590a34cfdf99b729d4f69dc",33,"['numberbar_pos', 'numberbar_neg', 'numberbar_mixed']","A",2150,"3","block_two","numberbar_neg",2,1677856255.131,1,1677856257.33,1,1677856260.346,2.19899988174438,-1,-1,5590,2,0,0,0,1
"178","5590a34cfdf99b729d4f69dc",33,"['numberbar_pos', 'numberbar_neg', 'numberbar_mixed']","A",2156,"3","block_two","numberbar_neg",3,1677856261.363,1,1677856269.743,1,1677856272.775,8.38000011444092,-1,-1,5590,3,0,0,0,1
"179","5590a34cfdf99b729d4f69dc",33,"['numberbar_pos', 'numberbar_neg', 'numberbar_mixed']","A",2159,"3","block_two","numberbar_neg",4,1677856273.791,1,1677856274.841,1,1677856277.857,1.05000019073486,-1,-1,5590,4,0,0,0,1
"180","5590a34cfdf99b729d4f69dc",33,"['numberbar_pos', 'numberbar_neg', 'numberbar_mixed']","A",2162,"3","block_two","numberbar_neg",5,1677856278.856,0,1677856279.323,0,1677856282.355,0.467000007629395,-1,-1,5590,5,0,1,0,0
"181","5590a34cfdf99b729d4f69dc",33,"['numberbar_pos', 'numberbar_neg', 'numberbar_mixed']","A",2165,"3","block_two","numberbar_neg",6,1677856283.371,0,1677856284.371,1,1677856287.403,1,-1,-1,5590,6,0,1,0,0
"182","5590a34cfdf99b729d4f69dc",33,"['numberbar_pos', 'numberbar_neg', 'numberbar_mixed']","A",2168,"3","block_two","numberbar_neg",7,1677856288.403,1,1677856288.453,1,1677856291.469,0.0499999523162842,-1,-1,5590,7,0,0,0,1
"183","5590a34cfdf99b729d4f69dc",33,"['numberbar_pos', 'numberbar_neg', 'numberbar_mixed']","A",2171,"3","block_two","numberbar_neg",8,1677856292.485,1,1677856293.417,1,1677856296.45,0.932000160217285,-1,-1,5590,8,0,0,0,1
"184","5590a34cfdf99b729d4f69dc",33,"['numberbar_pos', 'numberbar_neg', 'numberbar_mixed']","A",2175,"3","block_two","numberbar_neg",9,1677856297.467,0,1677856301.015,0,1677856304.048,3.54800009727478,-1,-1,5590,9,0,1,0,0
"185","5590a34cfdf99b729d4f69dc",33,"['numberbar_pos', 'numberbar_neg', 'numberbar_mixed']","A",2178,"3","block_two","numberbar_neg",10,1677856305.064,1,1677856305.597,1,1677856308.629,0.532999992370605,-1,-1,5590,10,0,0,0,1
"186","5590a34cfdf99b729d4f69dc",33,"['numberbar_pos', 'numberbar_neg', 'numberbar_mixed']","A",2181,"3","block_two","numberbar_neg",11,1677856309.645,1,1677856310.178,0,1677856313.211,0.532999992370605,-1,-1,5590,11,0,0,0,1
"187","5590a34cfdf99b729d4f69dc",33,"['numberbar_pos', 'numberbar_neg', 'numberbar_mixed']","A",2185,"3","block_two","numberbar_neg",12,1677856314.227,0,1677856315.177,0,1677856318.193,0.950000047683716,-1,-1,5590,12,1,1,0,0
"188","5590a34cfdf99b729d4f69dc",33,"['numberbar_pos', 'numberbar_neg', 'numberbar_mixed']","A",2188,"3","block_two","numberbar_neg",13,1677856319.209,0,1677856320.009,1,1677856323.041,0.799999952316284,-1,-1,5590,13,0,1,1,1
"189","5590a34cfdf99b729d4f69dc",33,"['numberbar_pos', 'numberbar_neg', 'numberbar_mixed']","A",2190,"3","block_two","numberbar_neg",14,1677856324.042,1,1677856324.54,1,1677856327.573,0.497999906539917,-1,-1,5590,14,0,0,1,0
"190","5590a34cfdf99b729d4f69dc",33,"['numberbar_pos', 'numberbar_neg', 'numberbar_mixed']","A",2194,"3","block_two","numberbar_neg",15,1677856328.573,1,1677856329.589,0,1677856332.622,1.01600003242493,-1,-1,5590,15,0,0,1,0
"191","5590a34cfdf99b729d4f69dc",33,"['numberbar_pos', 'numberbar_neg', 'numberbar_mixed']","A",2198,"3","block_two","numberbar_neg",16,1677856333.638,1,1677856336.386,0,1677856339.419,2.74799990653992,-1,-1,5590,16,0,0,1,0
"192","5590a34cfdf99b729d4f69dc",33,"['numberbar_pos', 'numberbar_neg', 'numberbar_mixed']","A",2200,"3","block_two","numberbar_neg",17,1677856340.435,0,1677856340.985,1,1677856344.017,0.549999952316284,-1,-1,5590,17,0,1,1,1
"193","5590a34cfdf99b729d4f69dc",33,"['numberbar_pos', 'numberbar_neg', 'numberbar_mixed']","A",2201,"3","block_two","numberbar_neg",18,1677856345.017,0,1677856345.501,1,1677856348.516,0.483999967575073,-1,-1,5590,18,0,1,1,1
"194","5590a34cfdf99b729d4f69dc",33,"['numberbar_pos', 'numberbar_neg', 'numberbar_mixed']","A",2202,"3","block_two","numberbar_neg",19,1677856349.533,0,1677856350.165,0,1677856353.198,0.631999969482422,-1,-1,5590,19,0,1,1,1
"195","5590a34cfdf99b729d4f69dc",33,"['numberbar_pos', 'numberbar_neg', 'numberbar_mixed']","A",2204,"3","block_two","numberbar_neg",20,1677856354.214,1,1677856354.947,0,1677856357.98,0.733000040054321,-1,-1,5590,20,0,0,1,0
"196","5590a34cfdf99b729d4f69dc",33,"['numberbar_pos', 'numberbar_neg', 'numberbar_mixed']","A",2206,"3","block_two","numberbar_neg",21,1677856358.996,1,1677856359.495,0,1677856362.528,0.498999834060669,-1,-1,5590,21,0,0,1,0
"197","5590a34cfdf99b729d4f69dc",33,"['numberbar_pos', 'numberbar_neg', 'numberbar_mixed']","A",2208,"3","block_two","numberbar_neg",22,1677856363.544,0,1677856363.611,1,1677856366.627,0.067000150680542,-1,-1,5590,22,0,1,1,1
"198","5590a34cfdf99b729d4f69dc",33,"['numberbar_pos', 'numberbar_neg', 'numberbar_mixed']","A",2210,"3","block_two","numberbar_neg",23,1677856367.643,0,1677856368.309,1,1677856371.341,0.666000127792358,-1,-1,5590,23,0,1,1,1
"199","5590a34cfdf99b729d4f69dc",33,"['numberbar_pos', 'numberbar_neg', 'numberbar_mixed']","A",2212,"3","block_two","numberbar_neg",24,1677856372.358,0,1677856373.291,0,1677856376.324,0.932999849319458,-1,-1,5590,24,1,1,1,1
"200","5590a34cfdf99b729d4f69dc",33,"['numberbar_pos', 'numberbar_neg', 'numberbar_mixed']","A",2214,"3","block_two","numberbar_neg",25,1677856377.323,0,1677856378.372,0,1677856381.405,1.04900002479553,-1,-1,5590,25,0,1,0,0
"201","5590a34cfdf99b729d4f69dc",33,"['numberbar_pos', 'numberbar_neg', 'numberbar_mixed']","A",2216,"3","block_two","numberbar_neg",26,1677856382.405,1,1677856385.037,1,1677856388.069,2.63199996948242,-1,-1,5590,26,0,0,0,1
"202","5590a34cfdf99b729d4f69dc",33,"['numberbar_pos', 'numberbar_neg', 'numberbar_mixed']","A",2218,"3","block_two","numberbar_neg",27,1677856389.086,1,1677856390.502,1,1677856393.534,1.41600012779236,-1,-1,5590,27,0,0,0,1
"203","5590a34cfdf99b729d4f69dc",33,"['numberbar_pos', 'numberbar_neg', 'numberbar_mixed']","A",2219,"3","block_two","numberbar_neg",28,1677856394.551,1,1677856394.651,1,1677856397.683,0.0999999046325684,-1,-1,5590,28,0,0,0,1
"204","5590a34cfdf99b729d4f69dc",33,"['numberbar_pos', 'numberbar_neg', 'numberbar_mixed']","A",2221,"3","block_two","numberbar_neg",29,1677856398.699,1,1677856398.999,1,1677856402.032,0.300000190734863,-1,-1,5590,29,0,0,0,1
"205","5590a34cfdf99b729d4f69dc",33,"['numberbar_pos', 'numberbar_neg', 'numberbar_mixed']","A",2223,"3","block_two","numberbar_neg",30,1677856403.046,1,1677856403.73,1,1677856406.746,0.684000015258789,-1,-1,5590,30,0,0,0,1
"206","5590a34cfdf99b729d4f69dc",33,"['numberbar_pos', 'numberbar_neg', 'numberbar_mixed']","A",2225,"3","block_two","numberbar_neg",31,1677856407.762,0,1677856408.495,0,1677856411.511,0.732999801635742,-1,-1,5590,31,0,1,0,0
"207","5590a34cfdf99b729d4f69dc",33,"['numberbar_pos', 'numberbar_neg', 'numberbar_mixed']","A",2227,"3","block_two","numberbar_neg",32,1677856412.51,0,1677856414.227,0,1677856417.259,1.71700000762939,-1,-1,5590,32,0,1,0,0
"208","5590a34cfdf99b729d4f69dc",33,"['numberbar_pos', 'numberbar_neg', 'numberbar_mixed']","A",2229,"3","block_two","numberbar_neg",33,1677856418.275,1,1677856418.425,1,1677856421.457,0.149999856948853,-1,-1,5590,33,0,0,0,1
"209","5590a34cfdf99b729d4f69dc",33,"['numberbar_pos', 'numberbar_neg', 'numberbar_mixed']","A",2231,"3","block_two","numberbar_neg",34,1677856422.474,1,1677856423.54,1,1677856426.555,1.06599998474121,-1,-1,5590,34,0,0,0,1
"210","5590a34cfdf99b729d4f69dc",33,"['numberbar_pos', 'numberbar_neg', 'numberbar_mixed']","A",2233,"3","block_two","numberbar_neg",35,1677856427.571,1,1677856427.722,1,1677856430.754,0.150999784469604,-1,-1,5590,35,0,0,0,1
"211","5596a991fdf99b2d1e834690",93,"['numberbar_mixed', 'numberbar_neg', 'numberbar_pos']","A",8381,"3","block_one","numberbar_mixed",1,1677875143.758,1,1677875144.29,0,1677875147.321,0.532000064849854,-1,-1,5596,1,0,0,1,0
"212","5596a991fdf99b2d1e834690",93,"['numberbar_mixed', 'numberbar_neg', 'numberbar_pos']","A",8382,"3","block_one","numberbar_mixed",2,1677875148.335,0,1677875148.388,1,1677875151.381,0.0529999732971191,-1,-1,5596,2,0,1,1,1
"213","5596a991fdf99b2d1e834690",93,"['numberbar_mixed', 'numberbar_neg', 'numberbar_pos']","A",8383,"3","block_one","numberbar_mixed",3,1677875152.397,0,1677875152.48,1,1677875155.493,0.0829999446868896,-1,-1,5596,3,0,1,1,1
"214","5596a991fdf99b2d1e834690",93,"['numberbar_mixed', 'numberbar_neg', 'numberbar_pos']","A",8384,"3","block_one","numberbar_mixed",4,1677875156.493,0,1677875156.558,0,1677875159.572,0.065000057220459,-1,-1,5596,4,0,1,1,1
"215","5596a991fdf99b2d1e834690",93,"['numberbar_mixed', 'numberbar_neg', 'numberbar_pos']","A",8385,"3","block_one","numberbar_mixed",5,1677875160.588,1,1677875160.77,0,1677875163.8,0.181999921798706,-1,-1,5596,5,0,0,1,0
"216","5596a991fdf99b2d1e834690",93,"['numberbar_mixed', 'numberbar_neg', 'numberbar_pos']","A",8386,"3","block_one","numberbar_mixed",6,1677875164.799,0,1677875165.032,1,1677875168.062,0.233000040054321,-1,-1,5596,6,0,1,1,1
"217","5596a991fdf99b2d1e834690",93,"['numberbar_mixed', 'numberbar_neg', 'numberbar_pos']","A",8387,"3","block_one","numberbar_mixed",7,1677875169.079,0,1677875169.145,1,1677875172.158,0.0659999847412109,-1,-1,5596,7,0,1,1,1
"218","5596a991fdf99b2d1e834690",93,"['numberbar_mixed', 'numberbar_neg', 'numberbar_pos']","A",8388,"3","block_one","numberbar_mixed",8,1677875173.173,0,1677875173.273,1,1677875176.287,0.0999999046325684,-1,-1,5596,8,0,1,1,1
"219","5596a991fdf99b2d1e834690",93,"['numberbar_mixed', 'numberbar_neg', 'numberbar_pos']","A",8389,"3","block_one","numberbar_mixed",9,1677875177.302,0,1677875177.568,0,1677875180.598,0.266000032424927,-1,-1,5596,9,0,1,1,1
"220","5596a991fdf99b2d1e834690",93,"['numberbar_mixed', 'numberbar_neg', 'numberbar_pos']","A",8390,"3","block_one","numberbar_mixed",10,1677875181.613,1,1677875181.655,1,1677875184.66,0.0420000553131104,-1,-1,5596,10,0,0,1,0
"221","5596a991fdf99b2d1e834690",93,"['numberbar_mixed', 'numberbar_neg', 'numberbar_pos']","A",8391,"3","block_one","numberbar_mixed",11,1677875185.676,1,1677875185.728,0,1677875188.738,0.0519998073577881,-1,-1,5596,11,0,0,1,0
"222","5596a991fdf99b2d1e834690",93,"['numberbar_mixed', 'numberbar_neg', 'numberbar_pos']","A",8392,"3","block_one","numberbar_mixed",12,1677875189.754,0,1677875189.837,1,1677875192.85,0.0829999446868896,-1,-1,5596,12,1,1,1,1
"223","5596a991fdf99b2d1e834690",93,"['numberbar_mixed', 'numberbar_neg', 'numberbar_pos']","A",8393,"3","block_one","numberbar_mixed",13,1677875193.866,0,1677875193.905,0,1677875196.912,0.0390000343322754,-1,-1,5596,13,0,1,0,0
"224","5596a991fdf99b2d1e834690",93,"['numberbar_mixed', 'numberbar_neg', 'numberbar_pos']","A",8394,"3","block_one","numberbar_mixed",14,1677875197.929,1,1677875198.078,1,1677875201.091,0.14900016784668,-1,-1,5596,14,0,0,0,1
"225","5596a991fdf99b2d1e834690",93,"['numberbar_mixed', 'numberbar_neg', 'numberbar_pos']","A",8395,"3","block_one","numberbar_mixed",15,1677875202.107,1,1677875202.259,1,1677875205.27,0.151999950408936,-1,-1,5596,15,0,0,0,1
"226","5596a991fdf99b2d1e834690",93,"['numberbar_mixed', 'numberbar_neg', 'numberbar_pos']","A",8396,"3","block_one","numberbar_mixed",16,1677875206.286,1,1677875206.435,0,1677875209.448,0.148999929428101,-1,-1,5596,16,0,0,0,1
"227","5596a991fdf99b2d1e834690",93,"['numberbar_mixed', 'numberbar_neg', 'numberbar_pos']","A",8397,"3","block_one","numberbar_mixed",17,1677875210.464,0,1677875210.564,0,1677875213.577,0.0999999046325684,-1,-1,5596,17,0,1,0,0
"228","5596a991fdf99b2d1e834690",93,"['numberbar_mixed', 'numberbar_neg', 'numberbar_pos']","A",8398,"3","block_one","numberbar_mixed",18,1677875214.592,1,1677875214.709,1,1677875217.723,0.117000102996826,-1,-1,5596,18,0,0,0,1
"229","5596a991fdf99b2d1e834690",93,"['numberbar_mixed', 'numberbar_neg', 'numberbar_pos']","A",8399,"3","block_one","numberbar_mixed",19,1677875218.739,1,1677875218.779,0,1677875221.784,0.0399999618530273,-1,-1,5596,19,0,0,0,1
"230","5596a991fdf99b2d1e834690",93,"['numberbar_mixed', 'numberbar_neg', 'numberbar_pos']","A",8400,"3","block_one","numberbar_mixed",20,1677875222.8,0,1677875222.842,0,1677875225.846,0.0420000553131104,-1,-1,5596,20,0,1,0,0
"231","5596a991fdf99b2d1e834690",93,"['numberbar_mixed', 'numberbar_neg', 'numberbar_pos']","A",8401,"3","block_one","numberbar_mixed",21,1677875226.862,1,1677875226.928,1,1677875229.942,0.0659999847412109,-1,-1,5596,21,0,0,0,1
"232","5596a991fdf99b2d1e834690",93,"['numberbar_mixed', 'numberbar_neg', 'numberbar_pos']","A",8402,"3","block_one","numberbar_mixed",22,1677875230.957,1,1677875231.207,1,1677875234.237,0.25,-1,-1,5596,22,0,0,0,1
"233","5596a991fdf99b2d1e834690",93,"['numberbar_mixed', 'numberbar_neg', 'numberbar_pos']","A",8403,"3","block_one","numberbar_mixed",23,1677875235.252,1,1677875235.834,1,1677875238.848,0.582000017166138,-1,-1,5596,23,0,0,0,1
"234","5596a991fdf99b2d1e834690",93,"['numberbar_mixed', 'numberbar_neg', 'numberbar_pos']","A",8404,"3","block_one","numberbar_mixed",24,1677875239.864,1,1677875240.047,1,1677875243.076,0.182999849319458,-1,-1,5596,24,1,0,0,1
"235","5596a991fdf99b2d1e834690",93,"['numberbar_mixed', 'numberbar_neg', 'numberbar_pos']","A",8405,"3","block_one","numberbar_mixed",25,1677875244.093,1,1677875244.308,0,1677875247.338,0.215000152587891,-1,-1,5596,25,0,0,1,0
"236","5596a991fdf99b2d1e834690",93,"['numberbar_mixed', 'numberbar_neg', 'numberbar_pos']","A",8406,"3","block_one","numberbar_mixed",26,1677875248.337,0,1677875248.504,1,1677875251.534,0.16700005531311,-1,-1,5596,26,0,1,1,1
"237","5596a991fdf99b2d1e834690",93,"['numberbar_mixed', 'numberbar_neg', 'numberbar_pos']","A",8407,"3","block_one","numberbar_mixed",27,1677875252.549,0,1677875252.715,1,1677875255.745,0.165999889373779,-1,-1,5596,27,0,1,1,1
"238","5596a991fdf99b2d1e834690",93,"['numberbar_mixed', 'numberbar_neg', 'numberbar_pos']","A",8408,"3","block_one","numberbar_mixed",28,1677875256.745,0,1677875257.01,1,1677875260.041,0.265000104904175,-1,-1,5596,28,0,1,1,1
"239","5596a991fdf99b2d1e834690",93,"['numberbar_mixed', 'numberbar_neg', 'numberbar_pos']","A",8409,"3","block_one","numberbar_mixed",29,1677875261.039,1,1677875261.223,0,1677875264.252,0.184000015258789,-1,-1,5596,29,0,0,1,0
"240","5596a991fdf99b2d1e834690",93,"['numberbar_mixed', 'numberbar_neg', 'numberbar_pos']","A",8410,"3","block_one","numberbar_mixed",30,1677875265.267,0,1677875265.334,1,1677875268.348,0.067000150680542,-1,-1,5596,30,0,1,1,1
"241","5596a991fdf99b2d1e834690",93,"['numberbar_mixed', 'numberbar_neg', 'numberbar_pos']","A",8411,"3","block_one","numberbar_mixed",31,1677875269.363,0,1677875269.481,0,1677875272.493,0.118000030517578,-1,-1,5596,31,0,1,1,1
"242","5596a991fdf99b2d1e834690",93,"['numberbar_mixed', 'numberbar_neg', 'numberbar_pos']","A",8412,"3","block_one","numberbar_mixed",32,1677875273.508,1,1677875273.758,0,1677875276.788,0.25,-1,-1,5596,32,0,0,1,0
"243","5596a991fdf99b2d1e834690",93,"['numberbar_mixed', 'numberbar_neg', 'numberbar_pos']","A",8413,"3","block_one","numberbar_mixed",33,1677875277.804,0,1677875277.92,1,1677875280.934,0.116000175476074,-1,-1,5596,33,0,1,1,1
"244","5596a991fdf99b2d1e834690",93,"['numberbar_mixed', 'numberbar_neg', 'numberbar_pos']","A",8414,"3","block_one","numberbar_mixed",34,1677875281.949,0,1677875281.991,1,1677875284.995,0.0420000553131104,-1,-1,5596,34,0,1,1,1
"245","5596a991fdf99b2d1e834690",93,"['numberbar_mixed', 'numberbar_neg', 'numberbar_pos']","A",8415,"3","block_one","numberbar_mixed",35,1677875285.994,0,1677875286.228,0,1677875289.257,0.233999967575073,-1,-1,5596,35,0,1,1,1
"246","5596a991fdf99b2d1e834690",93,"['numberbar_mixed', 'numberbar_neg', 'numberbar_pos']","A",8451,"3","block_three","numberbar_pos",1,1677875445.828,1,1677875446.144,1,1677875449.175,0.315999984741211,-1,-1,5596,1,0,0,1,0
"247","5596a991fdf99b2d1e834690",93,"['numberbar_mixed', 'numberbar_neg', 'numberbar_pos']","A",8452,"3","block_three","numberbar_pos",2,1677875450.19,1,1677875450.24,0,1677875453.253,0.0499999523162842,-1,-1,5596,2,0,0,1,0
"248","5596a991fdf99b2d1e834690",93,"['numberbar_mixed', 'numberbar_neg', 'numberbar_pos']","A",8453,"3","block_three","numberbar_pos",3,1677875454.269,0,1677875454.485,1,1677875457.517,0.215999841690063,-1,-1,5596,3,0,1,1,1
"249","5596a991fdf99b2d1e834690",93,"['numberbar_mixed', 'numberbar_neg', 'numberbar_pos']","A",8454,"3","block_three","numberbar_pos",4,1677875458.53,0,1677875458.614,1,1677875461.627,0.0840001106262207,-1,-1,5596,4,0,1,1,1
"250","5596a991fdf99b2d1e834690",93,"['numberbar_mixed', 'numberbar_neg', 'numberbar_pos']","A",8455,"3","block_three","numberbar_pos",5,1677875462.642,0,1677875462.742,1,1677875465.755,0.100000143051147,-1,-1,5596,5,0,1,1,1
"251","5596a991fdf99b2d1e834690",93,"['numberbar_mixed', 'numberbar_neg', 'numberbar_pos']","A",8456,"3","block_three","numberbar_pos",6,1677875466.755,0,1677875466.937,1,1677875469.967,0.181999921798706,-1,-1,5596,6,0,1,1,1
"252","5596a991fdf99b2d1e834690",93,"['numberbar_mixed', 'numberbar_neg', 'numberbar_pos']","A",8457,"3","block_three","numberbar_pos",7,1677875470.983,0,1677875471.049,1,1677875474.062,0.0659999847412109,-1,-1,5596,7,0,1,1,1
"253","5596a991fdf99b2d1e834690",93,"['numberbar_mixed', 'numberbar_neg', 'numberbar_pos']","A",8458,"3","block_three","numberbar_pos",8,1677875475.079,0,1677875475.194,0,1677875478.208,0.115000009536743,-1,-1,5596,8,0,1,1,1
"254","5596a991fdf99b2d1e834690",93,"['numberbar_mixed', 'numberbar_neg', 'numberbar_pos']","A",8459,"3","block_three","numberbar_pos",9,1677875479.222,1,1677875479.306,0,1677875482.319,0.0840001106262207,-1,-1,5596,9,0,0,1,0
"255","5596a991fdf99b2d1e834690",93,"['numberbar_mixed', 'numberbar_neg', 'numberbar_pos']","A",8460,"3","block_three","numberbar_pos",10,1677875483.335,0,1677875483.385,1,1677875486.398,0.0499999523162842,-1,-1,5596,10,0,1,1,1
"256","5596a991fdf99b2d1e834690",93,"['numberbar_mixed', 'numberbar_neg', 'numberbar_pos']","A",8461,"3","block_three","numberbar_pos",11,1677875487.414,0,1677875487.513,1,1677875490.527,0.0989999771118164,-1,-1,5596,11,0,1,1,1
"257","5596a991fdf99b2d1e834690",93,"['numberbar_mixed', 'numberbar_neg', 'numberbar_pos']","A",8462,"3","block_three","numberbar_pos",12,1677875491.543,0,1677875491.642,1,1677875494.657,0.0989999771118164,-1,-1,5596,12,1,1,1,1
"258","5596a991fdf99b2d1e834690",93,"['numberbar_mixed', 'numberbar_neg', 'numberbar_pos']","A",8463,"3","block_three","numberbar_pos",13,1677875495.671,0,1677875495.804,0,1677875498.817,0.132999897003174,-1,-1,5596,13,0,1,0,0
"259","5596a991fdf99b2d1e834690",93,"['numberbar_mixed', 'numberbar_neg', 'numberbar_pos']","A",8464,"3","block_three","numberbar_pos",14,1677875499.832,0,1677875500.766,1,1677875503.795,0.934000015258789,-1,-1,5596,14,0,1,0,0
"260","5596a991fdf99b2d1e834690",93,"['numberbar_mixed', 'numberbar_neg', 'numberbar_pos']","A",8465,"3","block_three","numberbar_pos",15,1677875504.811,0,1677875504.86,1,1677875507.857,0.0489997863769531,-1,-1,5596,15,0,1,0,0
"261","5596a991fdf99b2d1e834690",93,"['numberbar_mixed', 'numberbar_neg', 'numberbar_pos']","A",8466,"3","block_three","numberbar_pos",16,1677875508.873,0,1677875509.123,0,1677875512.152,0.25,-1,-1,5596,16,0,1,0,0
"262","5596a991fdf99b2d1e834690",93,"['numberbar_mixed', 'numberbar_neg', 'numberbar_pos']","A",8467,"3","block_three","numberbar_pos",17,1677875513.151,0,1677875513.195,0,1677875516.198,0.0439999103546143,-1,-1,5596,17,0,1,0,0
"263","5596a991fdf99b2d1e834690",93,"['numberbar_mixed', 'numberbar_neg', 'numberbar_pos']","A",8468,"3","block_three","numberbar_pos",18,1677875517.214,1,1677875517.268,0,1677875520.26,0.0539999008178711,-1,-1,5596,18,0,0,0,1
"264","5596a991fdf99b2d1e834690",93,"['numberbar_mixed', 'numberbar_neg', 'numberbar_pos']","A",8469,"3","block_three","numberbar_pos",19,1677875521.258,0,1677875521.691,0,1677875524.705,0.433000087738037,-1,-1,5596,19,0,1,0,0
"265","5596a991fdf99b2d1e834690",93,"['numberbar_mixed', 'numberbar_neg', 'numberbar_pos']","A",8470,"3","block_three","numberbar_pos",20,1677875525.704,1,1677875525.787,1,1677875528.816,0.0829999446868896,-1,-1,5596,20,0,0,0,1
"266","5596a991fdf99b2d1e834690",93,"['numberbar_mixed', 'numberbar_neg', 'numberbar_pos']","A",8471,"3","block_three","numberbar_pos",21,1677875529.832,1,1677875530.648,1,1677875533.678,0.815999984741211,-1,-1,5596,21,0,0,0,1
"267","5596a991fdf99b2d1e834690",93,"['numberbar_mixed', 'numberbar_neg', 'numberbar_pos']","A",8472,"3","block_three","numberbar_pos",22,1677875534.693,1,1677875536.458,1,1677875539.472,1.7649998664856,-1,-1,5596,22,0,0,0,1
"268","5596a991fdf99b2d1e834690",93,"['numberbar_mixed', 'numberbar_neg', 'numberbar_pos']","A",8473,"3","block_three","numberbar_pos",23,1677875540.47,1,1677875540.67,1,1677875543.699,0.200000047683716,-1,-1,5596,23,0,0,0,1
"269","5596a991fdf99b2d1e834690",93,"['numberbar_mixed', 'numberbar_neg', 'numberbar_pos']","A",8474,"3","block_three","numberbar_pos",24,1677875544.716,1,1677875544.75,1,1677875547.778,0.0339999198913574,-1,-1,5596,24,1,0,0,1
"270","5596a991fdf99b2d1e834690",93,"['numberbar_mixed', 'numberbar_neg', 'numberbar_pos']","A",8475,"3","block_three","numberbar_pos",25,1677875548.793,1,1677875549.01,0,1677875552.04,0.217000007629395,-1,-1,5596,25,0,0,1,0
"271","5596a991fdf99b2d1e834690",93,"['numberbar_mixed', 'numberbar_neg', 'numberbar_pos']","A",8476,"3","block_three","numberbar_pos",26,1677875553.056,0,1677875553.172,1,1677875556.186,0.115999937057495,-1,-1,5596,26,0,1,1,1
"272","5596a991fdf99b2d1e834690",93,"['numberbar_mixed', 'numberbar_neg', 'numberbar_pos']","A",8477,"3","block_three","numberbar_pos",27,1677875557.2,1,1677875557.334,0,1677875560.347,0.134000062942505,-1,-1,5596,27,0,0,1,0
"273","5596a991fdf99b2d1e834690",93,"['numberbar_mixed', 'numberbar_neg', 'numberbar_pos']","A",8478,"3","block_three","numberbar_pos",28,1677875561.346,0,1677875561.48,1,1677875564.493,0.134000062942505,-1,-1,5596,28,0,1,1,1
"274","5596a991fdf99b2d1e834690",93,"['numberbar_mixed', 'numberbar_neg', 'numberbar_pos']","A",8479,"3","block_three","numberbar_pos",29,1677875565.508,0,1677875565.642,1,1677875568.655,0.134000062942505,-1,-1,5596,29,0,1,1,1
"275","5596a991fdf99b2d1e834690",93,"['numberbar_mixed', 'numberbar_neg', 'numberbar_pos']","A",8480,"3","block_three","numberbar_pos",30,1677875569.653,0,1677875569.694,1,1677875572.699,0.0409998893737793,-1,-1,5596,30,0,1,1,1
"276","5596a991fdf99b2d1e834690",93,"['numberbar_mixed', 'numberbar_neg', 'numberbar_pos']","A",8481,"3","block_three","numberbar_pos",31,1677875573.716,0,1677875573.799,1,1677875576.795,0.0829999446868896,-1,-1,5596,31,0,1,1,1
"277","5596a991fdf99b2d1e834690",93,"['numberbar_mixed', 'numberbar_neg', 'numberbar_pos']","A",8482,"3","block_three","numberbar_pos",32,1677875577.795,1,1677875579.791,0,1677875582.822,1.99599981307983,-1,-1,5596,32,0,0,1,0
"278","5596a991fdf99b2d1e834690",93,"['numberbar_mixed', 'numberbar_neg', 'numberbar_pos']","A",8483,"3","block_three","numberbar_pos",33,1677875583.837,0,1677875584.036,1,1677875587.066,0.199000120162964,-1,-1,5596,33,0,1,1,1
"279","5596a991fdf99b2d1e834690",93,"['numberbar_mixed', 'numberbar_neg', 'numberbar_pos']","A",8484,"3","block_three","numberbar_pos",34,1677875588.083,0,1677875588.232,1,1677875591.245,0.14900016784668,-1,-1,5596,34,0,1,1,1
"280","5596a991fdf99b2d1e834690",93,"['numberbar_mixed', 'numberbar_neg', 'numberbar_pos']","A",8485,"3","block_three","numberbar_pos",35,1677875592.26,0,1677875592.36,1,1677875595.374,0.0999999046325684,-1,-1,5596,35,0,1,1,1
"281","5596a991fdf99b2d1e834690",93,"['numberbar_mixed', 'numberbar_neg', 'numberbar_pos']","A",8416,"3","block_two","numberbar_neg",1,1677875294.551,1,1677875294.718,1,1677875297.73,0.166999816894531,-1,-1,5596,1,0,0,0,1
"282","5596a991fdf99b2d1e834690",93,"['numberbar_mixed', 'numberbar_neg', 'numberbar_pos']","A",8417,"3","block_two","numberbar_neg",2,1677875298.746,1,1677875298.896,1,1677875301.909,0.149999856948853,-1,-1,5596,2,0,0,0,1
"283","5596a991fdf99b2d1e834690",93,"['numberbar_mixed', 'numberbar_neg', 'numberbar_pos']","A",8418,"3","block_two","numberbar_neg",3,1677875302.909,1,1677875303.108,1,1677875306.121,0.199000120162964,-1,-1,5596,3,0,0,0,1
"284","5596a991fdf99b2d1e834690",93,"['numberbar_mixed', 'numberbar_neg', 'numberbar_pos']","A",8419,"3","block_two","numberbar_neg",4,1677875307.137,1,1677875307.18,0,1677875310.183,0.0429999828338623,-1,-1,5596,4,0,0,0,1
"285","5596a991fdf99b2d1e834690",93,"['numberbar_mixed', 'numberbar_neg', 'numberbar_pos']","A",8420,"3","block_two","numberbar_neg",5,1677875311.198,0,1677875311.283,0,1677875314.296,0.0850000381469727,-1,-1,5596,5,0,1,0,0
"286","5596a991fdf99b2d1e834690",93,"['numberbar_mixed', 'numberbar_neg', 'numberbar_pos']","A",8421,"3","block_two","numberbar_neg",6,1677875315.294,1,1677875315.377,1,1677875318.391,0.0830001831054688,-1,-1,5596,6,0,0,0,1
"287","5596a991fdf99b2d1e834690",93,"['numberbar_mixed', 'numberbar_neg', 'numberbar_pos']","A",8422,"3","block_two","numberbar_neg",7,1677875319.39,1,1677875319.589,1,1677875322.619,0.198999881744385,-1,-1,5596,7,0,0,0,1
"288","5596a991fdf99b2d1e834690",93,"['numberbar_mixed', 'numberbar_neg', 'numberbar_pos']","A",8423,"3","block_two","numberbar_neg",8,1677875323.635,1,1677875323.784,1,1677875326.814,0.148999929428101,-1,-1,5596,8,0,0,0,1
"289","5596a991fdf99b2d1e834690",93,"['numberbar_mixed', 'numberbar_neg', 'numberbar_pos']","A",8424,"3","block_two","numberbar_neg",9,1677875327.83,1,1677875328.229,0,1677875331.242,0.39900016784668,-1,-1,5596,9,0,0,0,1
"290","5596a991fdf99b2d1e834690",93,"['numberbar_mixed', 'numberbar_neg', 'numberbar_pos']","A",8425,"3","block_two","numberbar_neg",10,1677875332.258,1,1677875332.524,1,1677875335.554,0.266000032424927,-1,-1,5596,10,0,0,0,1
"291","5596a991fdf99b2d1e834690",93,"['numberbar_mixed', 'numberbar_neg', 'numberbar_pos']","A",8426,"3","block_two","numberbar_neg",11,1677875336.569,1,1677875336.853,1,1677875339.883,0.283999919891357,-1,-1,5596,11,0,0,0,1
"292","5596a991fdf99b2d1e834690",93,"['numberbar_mixed', 'numberbar_neg', 'numberbar_pos']","A",8427,"3","block_two","numberbar_neg",12,1677875340.899,1,1677875341.281,0,1677875344.311,0.381999969482422,-1,-1,5596,12,1,0,0,1
"293","5596a991fdf99b2d1e834690",93,"['numberbar_mixed', 'numberbar_neg', 'numberbar_pos']","A",8428,"3","block_two","numberbar_neg",13,1677875345.326,0,1677875345.426,1,1677875348.457,0.100000143051147,-1,-1,5596,13,0,1,1,1
"294","5596a991fdf99b2d1e834690",93,"['numberbar_mixed', 'numberbar_neg', 'numberbar_pos']","A",8429,"3","block_two","numberbar_neg",14,1677875349.472,1,1677875349.672,0,1677875352.701,0.200000047683716,-1,-1,5596,14,0,0,1,0
"295","5596a991fdf99b2d1e834690",93,"['numberbar_mixed', 'numberbar_neg', 'numberbar_pos']","A",8430,"3","block_two","numberbar_neg",15,1677875353.7,0,1677875353.916,1,1677875356.947,0.215999841690063,-1,-1,5596,15,0,1,1,1
"296","5596a991fdf99b2d1e834690",93,"['numberbar_mixed', 'numberbar_neg', 'numberbar_pos']","A",8431,"3","block_two","numberbar_neg",16,1677875357.962,0,1677875358.095,1,1677875361.108,0.133000135421753,-1,-1,5596,16,0,1,1,1
"297","5596a991fdf99b2d1e834690",93,"['numberbar_mixed', 'numberbar_neg', 'numberbar_pos']","A",8432,"3","block_two","numberbar_neg",17,1677875362.124,0,1677875362.424,1,1677875365.454,0.299999952316284,-1,-1,5596,17,0,1,1,1
"298","5596a991fdf99b2d1e834690",93,"['numberbar_mixed', 'numberbar_neg', 'numberbar_pos']","A",8433,"3","block_two","numberbar_neg",18,1677875366.469,0,1677875366.652,1,1677875369.682,0.182999849319458,-1,-1,5596,18,0,1,1,1
"299","5596a991fdf99b2d1e834690",93,"['numberbar_mixed', 'numberbar_neg', 'numberbar_pos']","A",8434,"3","block_two","numberbar_neg",19,1677875370.697,0,1677875370.763,1,1677875373.794,0.0659999847412109,-1,-1,5596,19,0,1,1,1
"300","5596a991fdf99b2d1e834690",93,"['numberbar_mixed', 'numberbar_neg', 'numberbar_pos']","A",8435,"3","block_two","numberbar_neg",20,1677875374.809,0,1677875375.026,1,1677875378.056,0.217000007629395,-1,-1,5596,20,0,1,1,1
"301","5596a991fdf99b2d1e834690",93,"['numberbar_mixed', 'numberbar_neg', 'numberbar_pos']","A",8436,"3","block_two","numberbar_neg",21,1677875379.072,0,1677875379.237,1,1677875382.25,0.164999961853027,-1,-1,5596,21,0,1,1,1
"302","5596a991fdf99b2d1e834690",93,"['numberbar_mixed', 'numberbar_neg', 'numberbar_pos']","A",8437,"3","block_two","numberbar_neg",22,1677875383.266,0,1677875383.302,1,1677875386.312,0.0360000133514404,-1,-1,5596,22,0,1,1,1
"303","5596a991fdf99b2d1e834690",93,"['numberbar_mixed', 'numberbar_neg', 'numberbar_pos']","A",8438,"3","block_two","numberbar_neg",23,1677875387.329,0,1677875387.561,1,1677875390.592,0.232000112533569,-1,-1,5596,23,0,1,1,1
"304","5596a991fdf99b2d1e834690",93,"['numberbar_mixed', 'numberbar_neg', 'numberbar_pos']","A",8439,"3","block_two","numberbar_neg",24,1677875391.607,0,1677875391.773,1,1677875394.804,0.165999889373779,-1,-1,5596,24,1,1,1,1
"305","5596a991fdf99b2d1e834690",93,"['numberbar_mixed', 'numberbar_neg', 'numberbar_pos']","A",8440,"3","block_two","numberbar_neg",25,1677875395.818,0,1677875395.858,0,1677875398.849,0.0399999618530273,-1,-1,5596,25,0,1,0,0
"306","5596a991fdf99b2d1e834690",93,"['numberbar_mixed', 'numberbar_neg', 'numberbar_pos']","A",8441,"3","block_two","numberbar_neg",26,1677875399.864,1,1677875399.964,1,1677875402.978,0.0999999046325684,-1,-1,5596,26,0,0,0,1
"307","5596a991fdf99b2d1e834690",93,"['numberbar_mixed', 'numberbar_neg', 'numberbar_pos']","A",8442,"3","block_two","numberbar_neg",27,1677875403.993,1,1677875404.225,0,1677875407.256,0.23199987411499,-1,-1,5596,27,0,0,0,1
"308","5596a991fdf99b2d1e834690",93,"['numberbar_mixed', 'numberbar_neg', 'numberbar_pos']","A",8443,"3","block_two","numberbar_neg",28,1677875408.271,0,1677875408.687,0,1677875411.717,0.416000127792358,-1,-1,5596,28,0,1,0,0
"309","5596a991fdf99b2d1e834690",93,"['numberbar_mixed', 'numberbar_neg', 'numberbar_pos']","A",8444,"3","block_two","numberbar_neg",29,1677875412.732,1,1677875412.778,1,1677875415.779,0.0460000038146973,-1,-1,5596,29,0,0,0,1
"310","5596a991fdf99b2d1e834690",93,"['numberbar_mixed', 'numberbar_neg', 'numberbar_pos']","A",8445,"3","block_two","numberbar_neg",30,1677875416.795,1,1677875417.044,1,1677875420.074,0.248999834060669,-1,-1,5596,30,0,0,0,1
"311","5596a991fdf99b2d1e834690",93,"['numberbar_mixed', 'numberbar_neg', 'numberbar_pos']","A",8446,"3","block_two","numberbar_neg",31,1677875421.09,1,1677875421.257,1,1677875424.286,0.16700005531311,-1,-1,5596,31,0,0,0,1
"312","5596a991fdf99b2d1e834690",93,"['numberbar_mixed', 'numberbar_neg', 'numberbar_pos']","A",8447,"3","block_two","numberbar_neg",32,1677875425.302,1,1677875425.418,1,1677875428.448,0.115999937057495,-1,-1,5596,32,0,0,0,1
"313","5596a991fdf99b2d1e834690",93,"['numberbar_mixed', 'numberbar_neg', 'numberbar_pos']","A",8448,"3","block_two","numberbar_neg",33,1677875429.447,1,1677875429.58,1,1677875432.593,0.132999897003174,-1,-1,5596,33,0,0,0,1
"314","5596a991fdf99b2d1e834690",93,"['numberbar_mixed', 'numberbar_neg', 'numberbar_pos']","A",8449,"3","block_two","numberbar_neg",34,1677875433.592,1,1677875433.792,0,1677875436.822,0.200000047683716,-1,-1,5596,34,0,0,0,1
"315","5596a991fdf99b2d1e834690",93,"['numberbar_mixed', 'numberbar_neg', 'numberbar_pos']","A",8450,"3","block_two","numberbar_neg",35,1677875437.837,0,1677875437.987,0,1677875441.001,0.150000095367432,-1,-1,5596,35,0,1,0,0
"316","55b237e6fdf99b19ea79d2f7",170,"['numberbar_neg', 'numberbar_mixed', 'numberbar_pos']","D",16414,"3","block_one","numberbar_neg",1,1678109862.168,1,1678109863.264,1,1678109866.284,1.09599995613098,-1,-1,55,1,0,0,0,1
"317","55b237e6fdf99b19ea79d2f7",170,"['numberbar_neg', 'numberbar_mixed', 'numberbar_pos']","D",16415,"3","block_one","numberbar_neg",2,1678109867.295,0,1678109868.208,0,1678109871.228,0.912999868392944,-1,-1,55,2,0,1,0,0
"318","55b237e6fdf99b19ea79d2f7",170,"['numberbar_neg', 'numberbar_mixed', 'numberbar_pos']","D",16416,"3","block_one","numberbar_neg",3,1678109872.241,1,1678109872.286,1,1678109875.277,0.0450000762939453,-1,-1,55,3,0,0,0,1
"319","55b237e6fdf99b19ea79d2f7",170,"['numberbar_neg', 'numberbar_mixed', 'numberbar_pos']","D",16417,"3","block_one","numberbar_neg",4,1678109876.29,0,1678109876.622,0,1678109879.658,0.332000017166138,-1,-1,55,4,0,1,0,0
"320","55b237e6fdf99b19ea79d2f7",170,"['numberbar_neg', 'numberbar_mixed', 'numberbar_pos']","D",16418,"3","block_one","numberbar_neg",5,1678109880.67,1,1678109881.586,1,1678109884.603,0.915999889373779,-1,-1,55,5,0,0,0,1
"321","55b237e6fdf99b19ea79d2f7",170,"['numberbar_neg', 'numberbar_mixed', 'numberbar_pos']","D",16419,"3","block_one","numberbar_neg",6,1678109885.615,1,1678109886.362,1,1678109889.382,0.746999979019165,-1,-1,55,6,0,0,0,1
"322","55b237e6fdf99b19ea79d2f7",170,"['numberbar_neg', 'numberbar_mixed', 'numberbar_pos']","D",16420,"3","block_one","numberbar_neg",7,1678109890.395,1,1678109890.676,1,1678109893.696,0.281000137329102,-1,-1,55,7,0,0,0,1
"323","55b237e6fdf99b19ea79d2f7",170,"['numberbar_neg', 'numberbar_mixed', 'numberbar_pos']","D",16421,"3","block_one","numberbar_neg",8,1678109894.709,1,1678109894.975,1,1678109898.011,0.265999794006348,-1,-1,55,8,0,0,0,1
"324","55b237e6fdf99b19ea79d2f7",170,"['numberbar_neg', 'numberbar_mixed', 'numberbar_pos']","D",16422,"3","block_one","numberbar_neg",9,1678109899.023,1,1678109899.555,1,1678109902.574,0.532000064849854,-1,-1,55,9,0,0,0,1
"325","55b237e6fdf99b19ea79d2f7",170,"['numberbar_neg', 'numberbar_mixed', 'numberbar_pos']","D",16423,"3","block_one","numberbar_neg",10,1678109903.586,1,1678109904.184,1,1678109907.204,0.598000049591064,-1,-1,55,10,0,0,0,1
"326","55b237e6fdf99b19ea79d2f7",170,"['numberbar_neg', 'numberbar_mixed', 'numberbar_pos']","D",16424,"3","block_one","numberbar_neg",11,1678109908.216,1,1678109908.315,1,1678109911.353,0.0989999771118164,-1,-1,55,11,0,0,0,1
"327","55b237e6fdf99b19ea79d2f7",170,"['numberbar_neg', 'numberbar_mixed', 'numberbar_pos']","D",16425,"3","block_one","numberbar_neg",12,1678109912.364,1,1678109912.43,0,1678109915.452,0.0659999847412109,-1,-1,55,12,0,0,0,1
"328","55b237e6fdf99b19ea79d2f7",170,"['numberbar_neg', 'numberbar_mixed', 'numberbar_pos']","D",16426,"3","block_one","numberbar_neg",13,1678109916.463,0,1678109916.828,0,1678109919.848,0.365000009536743,-1,-1,55,13,1,1,0,0
"329","55b237e6fdf99b19ea79d2f7",170,"['numberbar_neg', 'numberbar_mixed', 'numberbar_pos']","D",16427,"3","block_one","numberbar_neg",14,1678109920.861,0,1678109920.976,1,1678109923.997,0.115000009536743,-1,-1,55,14,0,1,1,1
"330","55b237e6fdf99b19ea79d2f7",170,"['numberbar_neg', 'numberbar_mixed', 'numberbar_pos']","D",16428,"3","block_one","numberbar_neg",15,1678109925.01,0,1678109925.49,1,1678109928.51,0.480000019073486,-1,-1,55,15,0,1,1,1
"331","55b237e6fdf99b19ea79d2f7",170,"['numberbar_neg', 'numberbar_mixed', 'numberbar_pos']","D",16429,"3","block_one","numberbar_neg",16,1678109929.522,0,1678109929.638,1,1678109932.658,0.115999937057495,-1,-1,55,16,0,1,1,1
"332","55b237e6fdf99b19ea79d2f7",170,"['numberbar_neg', 'numberbar_mixed', 'numberbar_pos']","D",16430,"3","block_one","numberbar_neg",17,1678109933.671,0,1678109933.904,1,1678109936.923,0.233000040054321,-1,-1,55,17,0,1,1,1
"333","55b237e6fdf99b19ea79d2f7",170,"['numberbar_neg', 'numberbar_mixed', 'numberbar_pos']","D",16431,"3","block_one","numberbar_neg",18,1678109937.936,0,1678109938.036,1,1678109941.055,0.0999999046325684,-1,-1,55,18,0,1,1,1
"334","55b237e6fdf99b19ea79d2f7",170,"['numberbar_neg', 'numberbar_mixed', 'numberbar_pos']","D",16432,"3","block_one","numberbar_neg",19,1678109942.067,0,1678109942.699,1,1678109945.719,0.631999969482422,-1,-1,55,19,0,1,1,1
"335","55b237e6fdf99b19ea79d2f7",170,"['numberbar_neg', 'numberbar_mixed', 'numberbar_pos']","D",16433,"3","block_one","numberbar_neg",20,1678109946.731,0,1678109946.93,1,1678109949.95,0.199000120162964,-1,-1,55,20,0,1,1,1
"336","55b237e6fdf99b19ea79d2f7",170,"['numberbar_neg', 'numberbar_mixed', 'numberbar_pos']","D",16434,"3","block_one","numberbar_neg",21,1678109950.963,0,1678109951.003,1,1678109953.999,0.0399999618530273,-1,-1,55,21,0,1,1,1
"337","55b237e6fdf99b19ea79d2f7",170,"['numberbar_neg', 'numberbar_mixed', 'numberbar_pos']","D",16435,"3","block_one","numberbar_neg",22,1678109955.011,0,1678109955.112,1,1678109958.131,0.101000070571899,-1,-1,55,22,0,1,1,1
"338","55b237e6fdf99b19ea79d2f7",170,"['numberbar_neg', 'numberbar_mixed', 'numberbar_pos']","D",16436,"3","block_one","numberbar_neg",23,1678109959.143,0,1678109959.226,0,1678109962.263,0.0830001831054688,-1,-1,55,23,0,1,1,1
"339","55b237e6fdf99b19ea79d2f7",170,"['numberbar_neg', 'numberbar_mixed', 'numberbar_pos']","D",16437,"3","block_one","numberbar_neg",24,1678109963.275,1,1678109963.325,0,1678109966.312,0.0499999523162842,-1,-1,55,24,0,0,1,0
"340","55b237e6fdf99b19ea79d2f7",170,"['numberbar_neg', 'numberbar_mixed', 'numberbar_pos']","D",16438,"3","block_one","numberbar_neg",25,1678109967.324,1,1678109967.605,0,1678109970.625,0.281000137329102,-1,-1,55,25,1,0,1,0
"341","55b237e6fdf99b19ea79d2f7",170,"['numberbar_neg', 'numberbar_mixed', 'numberbar_pos']","D",16439,"3","block_one","numberbar_neg",26,1678109971.638,0,1678109971.823,0,1678109974.845,0.184999942779541,-1,-1,55,26,0,1,0,0
"342","55b237e6fdf99b19ea79d2f7",170,"['numberbar_neg', 'numberbar_mixed', 'numberbar_pos']","D",16440,"3","block_one","numberbar_neg",27,1678109975.853,0,1678109976.168,0,1678109979.187,0.315000057220459,-1,-1,55,27,0,1,0,0
"343","55b237e6fdf99b19ea79d2f7",170,"['numberbar_neg', 'numberbar_mixed', 'numberbar_pos']","D",16441,"3","block_one","numberbar_neg",28,1678109980.2,1,1678109980.979,1,1678109983.999,0.779000043869019,-1,-1,55,28,0,0,0,1
"344","55b237e6fdf99b19ea79d2f7",170,"['numberbar_neg', 'numberbar_mixed', 'numberbar_pos']","D",16442,"3","block_one","numberbar_neg",29,1678109985.013,1,1678109985.145,1,1678109988.164,0.131999969482422,-1,-1,55,29,0,0,0,1
"345","55b237e6fdf99b19ea79d2f7",170,"['numberbar_neg', 'numberbar_mixed', 'numberbar_pos']","D",16443,"3","block_one","numberbar_neg",30,1678109989.16,1,1678109989.261,0,1678109992.281,0.10099983215332,-1,-1,55,30,0,0,0,1
"346","55b237e6fdf99b19ea79d2f7",170,"['numberbar_neg', 'numberbar_mixed', 'numberbar_pos']","D",16444,"3","block_one","numberbar_neg",31,1678109993.292,0,1678109993.376,0,1678109996.397,0.0839998722076416,-1,-1,55,31,0,1,0,0
"347","55b237e6fdf99b19ea79d2f7",170,"['numberbar_neg', 'numberbar_mixed', 'numberbar_pos']","D",16445,"3","block_one","numberbar_neg",32,1678109997.409,0,1678109997.625,0,1678110000.661,0.216000080108643,-1,-1,55,32,0,1,0,0
"348","55b237e6fdf99b19ea79d2f7",170,"['numberbar_neg', 'numberbar_mixed', 'numberbar_pos']","D",16446,"3","block_one","numberbar_neg",33,1678110001.672,1,1678110001.972,1,1678110004.992,0.299999952316284,-1,-1,55,33,0,0,0,1
"349","55b237e6fdf99b19ea79d2f7",170,"['numberbar_neg', 'numberbar_mixed', 'numberbar_pos']","D",16447,"3","block_one","numberbar_neg",34,1678110006.004,1,1678110006.17,1,1678110009.191,0.166000127792358,-1,-1,55,34,0,0,0,1
"350","55b237e6fdf99b19ea79d2f7",170,"['numberbar_neg', 'numberbar_mixed', 'numberbar_pos']","D",16448,"3","block_one","numberbar_neg",35,1678110010.204,1,1678110010.353,1,1678110013.371,0.148999929428101,-1,-1,55,35,0,0,0,1
"351","55b237e6fdf99b19ea79d2f7",170,"['numberbar_neg', 'numberbar_mixed', 'numberbar_pos']","D",16484,"3","block_three","numberbar_pos",1,1678110193.35,0,1678110194.928,0,1678110197.963,1.57800006866455,-1,-1,55,1,0,1,0,0
"352","55b237e6fdf99b19ea79d2f7",170,"['numberbar_neg', 'numberbar_mixed', 'numberbar_pos']","D",16485,"3","block_three","numberbar_pos",2,1678110198.974,1,1678110199.541,1,1678110202.56,0.566999912261963,-1,-1,55,2,0,0,0,1
"353","55b237e6fdf99b19ea79d2f7",170,"['numberbar_neg', 'numberbar_mixed', 'numberbar_pos']","D",16486,"3","block_three","numberbar_pos",3,1678110203.57,1,1678110203.821,1,1678110206.789,0.251000165939331,-1,-1,55,3,0,0,0,1
"354","55b237e6fdf99b19ea79d2f7",170,"['numberbar_neg', 'numberbar_mixed', 'numberbar_pos']","D",16487,"3","block_three","numberbar_pos",4,1678110207.803,1,1678110208.683,1,1678110211.703,0.880000114440918,-1,-1,55,4,0,0,0,1
"355","55b237e6fdf99b19ea79d2f7",170,"['numberbar_neg', 'numberbar_mixed', 'numberbar_pos']","D",16488,"3","block_three","numberbar_pos",5,1678110212.714,1,1678110213.015,1,1678110216.034,0.301000118255615,-1,-1,55,5,0,0,0,1
"356","55b237e6fdf99b19ea79d2f7",170,"['numberbar_neg', 'numberbar_mixed', 'numberbar_pos']","D",16489,"3","block_three","numberbar_pos",6,1678110217.047,1,1678110217.086,0,1678110220.1,0.0390000343322754,-1,-1,55,6,0,0,0,1
"357","55b237e6fdf99b19ea79d2f7",170,"['numberbar_neg', 'numberbar_mixed', 'numberbar_pos']","D",16490,"3","block_three","numberbar_pos",7,1678110221.111,1,1678110221.244,1,1678110224.248,0.132999897003174,-1,-1,55,7,0,0,0,1
"358","55b237e6fdf99b19ea79d2f7",170,"['numberbar_neg', 'numberbar_mixed', 'numberbar_pos']","D",16491,"3","block_three","numberbar_pos",8,1678110225.259,1,1678110225.301,0,1678110228.297,0.0420000553131104,-1,-1,55,8,0,0,0,1
"359","55b237e6fdf99b19ea79d2f7",170,"['numberbar_neg', 'numberbar_mixed', 'numberbar_pos']","D",16492,"3","block_three","numberbar_pos",9,1678110229.309,1,1678110229.608,1,1678110232.628,0.299000024795532,-1,-1,55,9,0,0,0,1
"360","55b237e6fdf99b19ea79d2f7",170,"['numberbar_neg', 'numberbar_mixed', 'numberbar_pos']","D",16493,"3","block_three","numberbar_pos",10,1678110233.639,1,1678110233.669,1,1678110236.677,0.0299999713897705,-1,-1,55,10,0,0,0,1
"361","55b237e6fdf99b19ea79d2f7",170,"['numberbar_neg', 'numberbar_mixed', 'numberbar_pos']","D",16494,"3","block_three","numberbar_pos",11,1678110237.689,1,1678110238.269,1,1678110241.273,0.580000162124634,-1,-1,55,11,0,0,0,1
"362","55b237e6fdf99b19ea79d2f7",170,"['numberbar_neg', 'numberbar_mixed', 'numberbar_pos']","D",16495,"3","block_three","numberbar_pos",12,1678110242.285,1,1678110242.352,1,1678110245.355,0.0669999122619629,-1,-1,55,12,0,0,0,1
"363","55b237e6fdf99b19ea79d2f7",170,"['numberbar_neg', 'numberbar_mixed', 'numberbar_pos']","D",16496,"3","block_three","numberbar_pos",13,1678110246.366,1,1678110246.405,0,1678110249.386,0.0390000343322754,-1,-1,55,13,1,0,0,1
"364","55b237e6fdf99b19ea79d2f7",170,"['numberbar_neg', 'numberbar_mixed', 'numberbar_pos']","D",16497,"3","block_three","numberbar_pos",14,1678110250.4,1,1678110250.997,0,1678110254.018,0.596999883651733,-1,-1,55,14,0,0,1,0
"365","55b237e6fdf99b19ea79d2f7",170,"['numberbar_neg', 'numberbar_mixed', 'numberbar_pos']","D",16498,"3","block_three","numberbar_pos",15,1678110255.028,1,1678110255.095,0,1678110258.116,0.0669999122619629,-1,-1,55,15,0,0,1,0
"366","55b237e6fdf99b19ea79d2f7",170,"['numberbar_neg', 'numberbar_mixed', 'numberbar_pos']","D",16499,"3","block_three","numberbar_pos",16,1678110259.128,0,1678110259.244,0,1678110262.231,0.115999937057495,-1,-1,55,16,0,1,1,1
"367","55b237e6fdf99b19ea79d2f7",170,"['numberbar_neg', 'numberbar_mixed', 'numberbar_pos']","D",16500,"3","block_three","numberbar_pos",17,1678110263.244,0,1678110263.343,1,1678110266.364,0.0989999771118164,-1,-1,55,17,0,1,1,1
"368","55b237e6fdf99b19ea79d2f7",170,"['numberbar_neg', 'numberbar_mixed', 'numberbar_pos']","D",16501,"3","block_three","numberbar_pos",18,1678110267.376,0,1678110267.51,1,1678110270.529,0.134000062942505,-1,-1,55,18,0,1,1,1
"369","55b237e6fdf99b19ea79d2f7",170,"['numberbar_neg', 'numberbar_mixed', 'numberbar_pos']","D",16502,"3","block_three","numberbar_pos",19,1678110271.541,0,1678110271.689,1,1678110274.709,0.148000001907349,-1,-1,55,19,0,1,1,1
"370","55b237e6fdf99b19ea79d2f7",170,"['numberbar_neg', 'numberbar_mixed', 'numberbar_pos']","D",16503,"3","block_three","numberbar_pos",20,1678110275.705,0,1678110276.503,1,1678110279.522,0.79800009727478,-1,-1,55,20,0,1,1,1
"371","55b237e6fdf99b19ea79d2f7",170,"['numberbar_neg', 'numberbar_mixed', 'numberbar_pos']","D",16504,"3","block_three","numberbar_pos",21,1678110280.535,0,1678110280.7,0,1678110283.703,0.164999961853027,-1,-1,55,21,0,1,1,1
"372","55b237e6fdf99b19ea79d2f7",170,"['numberbar_neg', 'numberbar_mixed', 'numberbar_pos']","D",16505,"3","block_three","numberbar_pos",22,1678110284.716,0,1678110284.782,1,1678110287.802,0.0659999847412109,-1,-1,55,22,0,1,1,1
"373","55b237e6fdf99b19ea79d2f7",170,"['numberbar_neg', 'numberbar_mixed', 'numberbar_pos']","D",16506,"3","block_three","numberbar_pos",23,1678110288.813,0,1678110288.931,1,1678110291.935,0.118000030517578,-1,-1,55,23,0,1,1,1
"374","55b237e6fdf99b19ea79d2f7",170,"['numberbar_neg', 'numberbar_mixed', 'numberbar_pos']","D",16507,"3","block_three","numberbar_pos",24,1678110292.945,0,1678110293.278,1,1678110296.298,0.333000183105469,-1,-1,55,24,0,1,1,1
"375","55b237e6fdf99b19ea79d2f7",170,"['numberbar_neg', 'numberbar_mixed', 'numberbar_pos']","D",16508,"3","block_three","numberbar_pos",25,1678110297.311,0,1678110297.348,1,1678110300.329,0.0369999408721924,-1,-1,55,25,1,1,1,1
"376","55b237e6fdf99b19ea79d2f7",170,"['numberbar_neg', 'numberbar_mixed', 'numberbar_pos']","D",16509,"3","block_three","numberbar_pos",26,1678110301.343,0,1678110301.408,0,1678110304.414,0.065000057220459,-1,-1,55,26,0,1,0,0
"377","55b237e6fdf99b19ea79d2f7",170,"['numberbar_neg', 'numberbar_mixed', 'numberbar_pos']","D",16510,"3","block_three","numberbar_pos",27,1678110305.426,0,1678110306.089,1,1678110309.093,0.662999868392944,-1,-1,55,27,0,1,0,0
"378","55b237e6fdf99b19ea79d2f7",170,"['numberbar_neg', 'numberbar_mixed', 'numberbar_pos']","D",16511,"3","block_three","numberbar_pos",28,1678110310.105,0,1678110311.233,1,1678110314.271,1.12800002098083,-1,-1,55,28,0,1,0,0
"379","55b237e6fdf99b19ea79d2f7",170,"['numberbar_neg', 'numberbar_mixed', 'numberbar_pos']","D",16512,"3","block_three","numberbar_pos",29,1678110315.282,0,1678110315.498,0,1678110318.502,0.215999841690063,-1,-1,55,29,0,1,0,0
"380","55b237e6fdf99b19ea79d2f7",170,"['numberbar_neg', 'numberbar_mixed', 'numberbar_pos']","D",16513,"3","block_three","numberbar_pos",30,1678110319.512,0,1678110320.046,1,1678110323.047,0.533999919891357,-1,-1,55,30,0,1,0,0
"381","55b237e6fdf99b19ea79d2f7",170,"['numberbar_neg', 'numberbar_mixed', 'numberbar_pos']","D",16514,"3","block_three","numberbar_pos",31,1678110324.061,0,1678110324.675,0,1678110327.695,0.613999843597412,-1,-1,55,31,0,1,0,0
"382","55b237e6fdf99b19ea79d2f7",170,"['numberbar_neg', 'numberbar_mixed', 'numberbar_pos']","D",16515,"3","block_three","numberbar_pos",32,1678110328.706,0,1678110328.873,0,1678110331.893,0.166999816894531,-1,-1,55,32,0,1,0,0
"383","55b237e6fdf99b19ea79d2f7",170,"['numberbar_neg', 'numberbar_mixed', 'numberbar_pos']","D",16516,"3","block_three","numberbar_pos",33,1678110332.905,1,1678110333.47,1,1678110336.489,0.565000057220459,-1,-1,55,33,0,0,0,1
"384","55b237e6fdf99b19ea79d2f7",170,"['numberbar_neg', 'numberbar_mixed', 'numberbar_pos']","D",16517,"3","block_three","numberbar_pos",34,1678110337.502,1,1678110338.132,1,1678110341.151,0.629999876022339,-1,-1,55,34,0,0,0,1
"385","55b237e6fdf99b19ea79d2f7",170,"['numberbar_neg', 'numberbar_mixed', 'numberbar_pos']","D",16518,"3","block_three","numberbar_pos",35,1678110342.165,1,1678110342.363,1,1678110345.382,0.197999954223633,-1,-1,55,35,0,0,0,1
"386","55b237e6fdf99b19ea79d2f7",170,"['numberbar_neg', 'numberbar_mixed', 'numberbar_pos']","D",16449,"3","block_two","numberbar_mixed",1,1678110019.379,1,1678110020.16,0,1678110023.196,0.781000137329102,-1,-1,55,1,0,0,1,0
"387","55b237e6fdf99b19ea79d2f7",170,"['numberbar_neg', 'numberbar_mixed', 'numberbar_pos']","D",16450,"3","block_two","numberbar_mixed",2,1678110024.208,0,1678110024.456,1,1678110027.477,0.248000144958496,-1,-1,55,2,0,1,1,1
"388","55b237e6fdf99b19ea79d2f7",170,"['numberbar_neg', 'numberbar_mixed', 'numberbar_pos']","D",16451,"3","block_two","numberbar_mixed",3,1678110028.487,0,1678110028.721,0,1678110031.741,0.233999967575073,-1,-1,55,3,0,1,1,1
"389","55b237e6fdf99b19ea79d2f7",170,"['numberbar_neg', 'numberbar_mixed', 'numberbar_pos']","D",16452,"3","block_two","numberbar_mixed",4,1678110032.753,0,1678110032.903,1,1678110035.923,0.150000095367432,-1,-1,55,4,0,1,1,1
"390","55b237e6fdf99b19ea79d2f7",170,"['numberbar_neg', 'numberbar_mixed', 'numberbar_pos']","D",16453,"3","block_two","numberbar_mixed",5,1678110036.936,0,1678110037.001,1,1678110040.022,0.0649998188018799,-1,-1,55,5,0,1,1,1
"391","55b237e6fdf99b19ea79d2f7",170,"['numberbar_neg', 'numberbar_mixed', 'numberbar_pos']","D",16454,"3","block_two","numberbar_mixed",6,1678110041.035,0,1678110042.246,1,1678110045.266,1.21099996566772,-1,-1,55,6,0,1,1,1
"392","55b237e6fdf99b19ea79d2f7",170,"['numberbar_neg', 'numberbar_mixed', 'numberbar_pos']","D",16455,"3","block_two","numberbar_mixed",7,1678110046.279,0,1678110046.409,0,1678110049.414,0.129999876022339,-1,-1,55,7,0,1,1,1
"393","55b237e6fdf99b19ea79d2f7",170,"['numberbar_neg', 'numberbar_mixed', 'numberbar_pos']","D",16456,"3","block_two","numberbar_mixed",8,1678110050.426,0,1678110050.492,1,1678110053.513,0.0659999847412109,-1,-1,55,8,0,1,1,1
"394","55b237e6fdf99b19ea79d2f7",170,"['numberbar_neg', 'numberbar_mixed', 'numberbar_pos']","D",16457,"3","block_two","numberbar_mixed",9,1678110054.524,0,1678110054.723,1,1678110057.743,0.199000120162964,-1,-1,55,9,0,1,1,1
"395","55b237e6fdf99b19ea79d2f7",170,"['numberbar_neg', 'numberbar_mixed', 'numberbar_pos']","D",16458,"3","block_two","numberbar_mixed",10,1678110058.756,0,1678110059.402,0,1678110062.423,0.645999908447266,-1,-1,55,10,0,1,1,1
"396","55b237e6fdf99b19ea79d2f7",170,"['numberbar_neg', 'numberbar_mixed', 'numberbar_pos']","D",16459,"3","block_two","numberbar_mixed",11,1678110063.435,1,1678110063.617,0,1678110066.637,0.182000160217285,-1,-1,55,11,0,0,1,0
"397","55b237e6fdf99b19ea79d2f7",170,"['numberbar_neg', 'numberbar_mixed', 'numberbar_pos']","D",16460,"3","block_two","numberbar_mixed",12,1678110067.648,0,1678110067.982,0,1678110071.002,0.334000110626221,-1,-1,55,12,0,1,1,1
"398","55b237e6fdf99b19ea79d2f7",170,"['numberbar_neg', 'numberbar_mixed', 'numberbar_pos']","D",16461,"3","block_two","numberbar_mixed",13,1678110072.013,1,1678110072.053,0,1678110075.068,0.0399999618530273,-1,-1,55,13,1,0,1,0
"399","55b237e6fdf99b19ea79d2f7",170,"['numberbar_neg', 'numberbar_mixed', 'numberbar_pos']","D",16462,"3","block_two","numberbar_mixed",14,1678110076.079,1,1678110076.378,1,1678110079.399,0.299000024795532,-1,-1,55,14,0,0,0,1
"400","55b237e6fdf99b19ea79d2f7",170,"['numberbar_neg', 'numberbar_mixed', 'numberbar_pos']","D",16463,"3","block_two","numberbar_mixed",15,1678110080.411,1,1678110081.29,1,1678110084.309,0.878999948501587,-1,-1,55,15,0,0,0,1
"401","55b237e6fdf99b19ea79d2f7",170,"['numberbar_neg', 'numberbar_mixed', 'numberbar_pos']","D",16464,"3","block_two","numberbar_mixed",16,1678110085.322,1,1678110085.985,1,1678110089.006,0.662999868392944,-1,-1,55,16,0,0,0,1
"402","55b237e6fdf99b19ea79d2f7",170,"['numberbar_neg', 'numberbar_mixed', 'numberbar_pos']","D",16465,"3","block_two","numberbar_mixed",17,1678110090.019,1,1678110105.32,0,1678110108.392,15.300999879837,-1,-1,55,17,0,0,0,1
"403","55b237e6fdf99b19ea79d2f7",170,"['numberbar_neg', 'numberbar_mixed', 'numberbar_pos']","D",16466,"3","block_two","numberbar_mixed",18,1678110109.403,1,1678110109.637,1,1678110112.655,0.233999967575073,-1,-1,55,18,0,0,0,1
"404","55b237e6fdf99b19ea79d2f7",170,"['numberbar_neg', 'numberbar_mixed', 'numberbar_pos']","D",16467,"3","block_two","numberbar_mixed",19,1678110113.656,1,1678110113.918,1,1678110116.953,0.26200008392334,-1,-1,55,19,0,0,0,1
"405","55b237e6fdf99b19ea79d2f7",170,"['numberbar_neg', 'numberbar_mixed', 'numberbar_pos']","D",16468,"3","block_two","numberbar_mixed",20,1678110117.947,1,1678110118.726,0,1678110121.646,0.779000043869019,-1,-1,55,20,0,0,0,1
"406","55b237e6fdf99b19ea79d2f7",170,"['numberbar_neg', 'numberbar_mixed', 'numberbar_pos']","D",16469,"3","block_two","numberbar_mixed",21,1678110122.659,1,1678110122.726,1,1678110125.763,0.067000150680542,-1,-1,55,21,0,0,0,1
"407","55b237e6fdf99b19ea79d2f7",170,"['numberbar_neg', 'numberbar_mixed', 'numberbar_pos']","D",16470,"3","block_two","numberbar_mixed",22,1678110126.775,1,1678110127.389,1,1678110130.361,0.613999843597412,-1,-1,55,22,0,0,0,1
"408","55b237e6fdf99b19ea79d2f7",170,"['numberbar_neg', 'numberbar_mixed', 'numberbar_pos']","D",16471,"3","block_two","numberbar_mixed",23,1678110131.372,1,1678110131.952,0,1678110134.939,0.579999923706055,-1,-1,55,23,0,0,0,1
"409","55b237e6fdf99b19ea79d2f7",170,"['numberbar_neg', 'numberbar_mixed', 'numberbar_pos']","D",16472,"3","block_two","numberbar_mixed",24,1678110135.935,1,1678110136.581,1,1678110139.603,0.646000146865845,-1,-1,55,24,0,0,0,1
"410","55b237e6fdf99b19ea79d2f7",170,"['numberbar_neg', 'numberbar_mixed', 'numberbar_pos']","D",16473,"3","block_two","numberbar_mixed",25,1678110140.613,1,1678110140.814,1,1678110143.8,0.200999975204468,-1,-1,55,25,1,0,0,1
"411","55b237e6fdf99b19ea79d2f7",170,"['numberbar_neg', 'numberbar_mixed', 'numberbar_pos']","D",16474,"3","block_two","numberbar_mixed",26,1678110144.813,1,1678110145.41,0,1678110148.428,0.597000122070312,-1,-1,55,26,0,0,1,0
"412","55b237e6fdf99b19ea79d2f7",170,"['numberbar_neg', 'numberbar_mixed', 'numberbar_pos']","D",16475,"3","block_two","numberbar_mixed",27,1678110149.443,0,1678110150.221,1,1678110153.242,0.777999877929688,-1,-1,55,27,0,1,1,1
"413","55b237e6fdf99b19ea79d2f7",170,"['numberbar_neg', 'numberbar_mixed', 'numberbar_pos']","D",16476,"3","block_two","numberbar_mixed",28,1678110154.253,0,1678110154.453,1,1678110157.457,0.200000047683716,-1,-1,55,28,0,1,1,1
"414","55b237e6fdf99b19ea79d2f7",170,"['numberbar_neg', 'numberbar_mixed', 'numberbar_pos']","D",16477,"3","block_two","numberbar_mixed",29,1678110158.468,0,1678110158.602,1,1678110161.606,0.134000062942505,-1,-1,55,29,0,1,1,1
"415","55b237e6fdf99b19ea79d2f7",170,"['numberbar_neg', 'numberbar_mixed', 'numberbar_pos']","D",16478,"3","block_two","numberbar_mixed",30,1678110162.619,0,1678110162.966,1,1678110165.987,0.347000122070312,-1,-1,55,30,0,1,1,1
"416","55b237e6fdf99b19ea79d2f7",170,"['numberbar_neg', 'numberbar_mixed', 'numberbar_pos']","D",16479,"3","block_two","numberbar_mixed",31,1678110166.998,0,1678110167.181,0,1678110170.168,0.183000087738037,-1,-1,55,31,0,1,1,1
"417","55b237e6fdf99b19ea79d2f7",170,"['numberbar_neg', 'numberbar_mixed', 'numberbar_pos']","D",16480,"3","block_two","numberbar_mixed",32,1678110171.18,0,1678110171.297,1,1678110174.301,0.116999864578247,-1,-1,55,32,0,1,1,1
"418","55b237e6fdf99b19ea79d2f7",170,"['numberbar_neg', 'numberbar_mixed', 'numberbar_pos']","D",16481,"3","block_two","numberbar_mixed",33,1678110175.312,0,1678110175.86,0,1678110178.881,0.547999858856201,-1,-1,55,33,0,1,1,1
"419","55b237e6fdf99b19ea79d2f7",170,"['numberbar_neg', 'numberbar_mixed', 'numberbar_pos']","D",16482,"3","block_two","numberbar_mixed",34,1678110179.893,0,1678110179.959,1,1678110182.962,0.06600022315979,-1,-1,55,34,0,1,1,1
"420","55b237e6fdf99b19ea79d2f7",170,"['numberbar_neg', 'numberbar_mixed', 'numberbar_pos']","D",16483,"3","block_two","numberbar_mixed",35,1678110183.975,0,1678110184.157,1,1678110187.144,0.182000160217285,-1,-1,55,35,0,1,1,1
"421","55b508f4fdf99b1c26c21c69",71,"['numberbar_mixed', 'numberbar_pos', 'numberbar_neg']","A",5843,"3","block_one","numberbar_mixed",1,1677867775.182,1,1677867776.299,0,1677867779.314,1.11700010299683,-1,-1,55,1,0,0,1,0
"422","55b508f4fdf99b1c26c21c69",71,"['numberbar_mixed', 'numberbar_pos', 'numberbar_neg']","A",5845,"3","block_one","numberbar_mixed",2,1677867780.332,0,1677867781.265,1,1677867784.3,0.933000087738037,-1,-1,55,2,0,1,1,1
"423","55b508f4fdf99b1c26c21c69",71,"['numberbar_mixed', 'numberbar_pos', 'numberbar_neg']","A",5849,"3","block_one","numberbar_mixed",3,1677867785.296,0,1677867785.965,1,1677867789.075,0.668999910354614,-1,-1,55,3,0,1,1,1
"424","55b508f4fdf99b1c26c21c69",71,"['numberbar_mixed', 'numberbar_pos', 'numberbar_neg']","A",5853,"3","block_one","numberbar_mixed",4,1677867790.031,0,1677867790.383,1,1677867793.396,0.351999998092651,-1,-1,55,4,0,1,1,1
"425","55b508f4fdf99b1c26c21c69",71,"['numberbar_mixed', 'numberbar_pos', 'numberbar_neg']","A",5857,"3","block_one","numberbar_mixed",5,1677867794.414,0,1677867795.331,1,1677867798.347,0.91700005531311,-1,-1,55,5,0,1,1,1
"426","55b508f4fdf99b1c26c21c69",71,"['numberbar_mixed', 'numberbar_pos', 'numberbar_neg']","A",5861,"3","block_one","numberbar_mixed",6,1677867799.364,0,1677867799.75,1,1677867802.764,0.385999917984009,-1,-1,55,6,0,1,1,1
"427","55b508f4fdf99b1c26c21c69",71,"['numberbar_mixed', 'numberbar_pos', 'numberbar_neg']","A",5865,"3","block_one","numberbar_mixed",7,1677867803.78,0,1677867804.464,1,1677867807.481,0.684000015258789,-1,-1,55,7,0,1,1,1
"428","55b508f4fdf99b1c26c21c69",71,"['numberbar_mixed', 'numberbar_pos', 'numberbar_neg']","A",5868,"3","block_one","numberbar_mixed",8,1677867808.496,0,1677867809.204,0,1677867812.23,0.70799994468689,-1,-1,55,8,0,1,1,1
"429","55b508f4fdf99b1c26c21c69",71,"['numberbar_mixed', 'numberbar_pos', 'numberbar_neg']","A",5872,"3","block_one","numberbar_mixed",9,1677867813.229,0,1677867813.299,0,1677867816.313,0.0699999332427979,-1,-1,55,9,0,1,1,1
"430","55b508f4fdf99b1c26c21c69",71,"['numberbar_mixed', 'numberbar_pos', 'numberbar_neg']","A",5876,"3","block_one","numberbar_mixed",10,1677867817.329,1,1677867817.714,0,1677867820.745,0.384999990463257,-1,-1,55,10,0,0,1,0
"431","55b508f4fdf99b1c26c21c69",71,"['numberbar_mixed', 'numberbar_pos', 'numberbar_neg']","A",5879,"3","block_one","numberbar_mixed",11,1677867821.746,1,1677867822.23,0,1677867825.262,0.483999967575073,-1,-1,55,11,0,0,1,0
"432","55b508f4fdf99b1c26c21c69",71,"['numberbar_mixed', 'numberbar_pos', 'numberbar_neg']","A",5883,"3","block_one","numberbar_mixed",12,1677867826.262,0,1677867826.597,1,1677867829.612,0.334999799728394,-1,-1,55,12,1,1,1,1
"433","55b508f4fdf99b1c26c21c69",71,"['numberbar_mixed', 'numberbar_pos', 'numberbar_neg']","A",5887,"3","block_one","numberbar_mixed",13,1677867830.614,0,1677867831.457,0,1677867834.479,0.842999935150146,-1,-1,55,13,0,1,0,0
"434","55b508f4fdf99b1c26c21c69",71,"['numberbar_mixed', 'numberbar_pos', 'numberbar_neg']","A",5890,"3","block_one","numberbar_mixed",14,1677867835.479,0,1677867835.779,0,1677867838.795,0.299999952316284,-1,-1,55,14,0,1,0,0
"435","55b508f4fdf99b1c26c21c69",71,"['numberbar_mixed', 'numberbar_pos', 'numberbar_neg']","A",5894,"3","block_one","numberbar_mixed",15,1677867839.814,0,1677867840.579,1,1677867843.611,0.765000104904175,-1,-1,55,15,0,1,0,0
"436","55b508f4fdf99b1c26c21c69",71,"['numberbar_mixed', 'numberbar_pos', 'numberbar_neg']","A",5898,"3","block_one","numberbar_mixed",16,1677867844.629,0,1677867845.178,0,1677867848.195,0.549000024795532,-1,-1,55,16,0,1,0,0
"437","55b508f4fdf99b1c26c21c69",71,"['numberbar_mixed', 'numberbar_pos', 'numberbar_neg']","A",5903,"3","block_one","numberbar_mixed",17,1677867849.213,0,1677867850.396,0,1677867853.411,1.18299984931946,-1,-1,55,17,0,1,0,0
"438","55b508f4fdf99b1c26c21c69",71,"['numberbar_mixed', 'numberbar_pos', 'numberbar_neg']","A",5908,"3","block_one","numberbar_mixed",18,1677867854.413,0,1677867855.415,0,1677867858.445,1.0019998550415,-1,-1,55,18,0,1,0,0
"439","55b508f4fdf99b1c26c21c69",71,"['numberbar_mixed', 'numberbar_pos', 'numberbar_neg']","A",5914,"3","block_one","numberbar_mixed",19,1677867859.466,1,1677867860.045,1,1677867863.061,0.578999996185303,-1,-1,55,19,0,0,0,1
"440","55b508f4fdf99b1c26c21c69",71,"['numberbar_mixed', 'numberbar_pos', 'numberbar_neg']","A",5918,"3","block_one","numberbar_mixed",20,1677867864.063,1,1677867864.462,1,1677867867.494,0.398999929428101,-1,-1,55,20,0,0,0,1
"441","55b508f4fdf99b1c26c21c69",71,"['numberbar_mixed', 'numberbar_pos', 'numberbar_neg']","A",5923,"3","block_one","numberbar_mixed",21,1677867868.494,1,1677867868.861,1,1677867871.877,0.367000102996826,-1,-1,55,21,0,0,0,1
"442","55b508f4fdf99b1c26c21c69",71,"['numberbar_mixed', 'numberbar_pos', 'numberbar_neg']","A",5928,"3","block_one","numberbar_mixed",22,1677867872.894,1,1677867873.294,1,1677867876.316,0.399999856948853,-1,-1,55,22,0,0,0,1
"443","55b508f4fdf99b1c26c21c69",71,"['numberbar_mixed', 'numberbar_pos', 'numberbar_neg']","A",5933,"3","block_one","numberbar_mixed",23,1677867877.328,1,1677867877.679,1,1677867880.71,0.35099983215332,-1,-1,55,23,0,0,0,1
"444","55b508f4fdf99b1c26c21c69",71,"['numberbar_mixed', 'numberbar_pos', 'numberbar_neg']","A",5938,"3","block_one","numberbar_mixed",24,1677867881.71,1,1677867882.211,1,1677867885.244,0.500999927520752,-1,-1,55,24,1,0,0,1
