,participant,trial,offer,choice_key,choice_rt,rating_rt,rating_start,rating,choice_rej,choice_acc,offer_bin,rating_z,rating_delta,rating_fill,log_rt
0,5c62c8c594e3bc0001d66cf8,0.0,5.0,left,0.852,,21.0,,0.0,1.0,Medium,,,,-0.16016875215282134
1,5c62c8c594e3bc0001d66cf8,1.0,4.0,left,1.234,4.45,43.0,3.0,0.0,1.0,Medium,-0.39843859708851914,-40.0,-40.0,0.21026092548319605
2,5c62c8c594e3bc0001d66cf8,2.0,3.0,left,0.863,,50.0,,0.0,1.0,Low,,,-40.0,-0.14734058789870913
3,5c62c8c594e3bc0001d66cf8,3.0,7.0,left,0.551,,50.0,,0.0,1.0,High,,,-40.0,-0.5960204698292225
4,5c62c8c594e3bc0001d66cf8,4.0,7.0,left,0.52,,50.0,,0.0,1.0,High,,,-40.0,-0.6539264674066639
5,5c62c8c594e3bc0001d66cf8,5.0,5.0,left,0.694,2.884,50.0,10.0,0.0,1.0,Medium,0.9296900598732116,-40.0,-40.0,-0.36528331847533263
6,5c62c8c594e3bc0001d66cf8,6.0,5.0,left,5.385,,36.0,,0.0,1.0,Medium,,,-40.0,1.6836173106083518
7,5c62c8c594e3bc0001d66cf8,7.0,8.0,left,0.596,,50.0,,0.0,1.0,High,,,-40.0,-0.5175146119167874
8,5c62c8c594e3bc0001d66cf8,8.0,4.0,left,0.99,4.232,50.0,0.0,0.0,1.0,Medium,-0.967636592929261,,-40.0,-0.01005033585350145
9,5c62c8c594e3bc0001d66cf8,9.0,5.0,left,0.853,,40.0,,0.0,1.0,Medium,,,-40.0,-0.15899573149045795
10,5c62c8c594e3bc0001d66cf8,10.0,2.0,left,1.461,1.716,17.0,0.0,0.0,1.0,Low,-0.967636592929261,,-40.0,0.37912113276856246
11,5c62c8c594e3bc0001d66cf8,11.0,4.0,left,0.871,,50.0,,0.0,1.0,Medium,,,-40.0,-0.13811330212963427
12,5c62c8c594e3bc0001d66cf8,12.0,1.0,left,0.866,,50.0,,0.0,1.0,Low,,,-40.0,-0.1438703704197019
13,5c62c8c594e3bc0001d66cf8,13.0,8.0,left,0.604,,50.0,,0.0,1.0,High,,,-40.0,-0.5041810810473222
14,5c62c8c594e3bc0001d66cf8,14.0,9.0,left,0.636,3.176,50.0,0.0,0.0,1.0,High,-0.967636592929261,,-40.0,-0.4525567156420149
15,5c62c8c594e3bc0001d66cf8,15.0,6.0,left,0.71,,37.0,,0.0,1.0,Medium,,,-40.0,-0.342490308946776
16,5c62c8c594e3bc0001d66cf8,16.0,2.0,left,36.198,,28.0,,0.0,1.0,Low,,,-40.0,3.58900386868668
17,5c62c8c594e3bc0001d66cf8,17.0,1.0,right,1.699,2.986,50.0,0.0,1.0,0.0,Low,-0.967636592929261,,-40.0,0.530039842689795
18,5c62c8c594e3bc0001d66cf8,18.0,2.0,right,1.675,,15.0,,1.0,0.0,Low,,,-40.0,0.5158131652770298
19,5c62c8c594e3bc0001d66cf8,19.0,3.0,right,1.353,,40.0,,1.0,0.0,Low,,,-40.0,0.302324349188651
20,5c62c8c594e3bc0001d66cf8,20.0,5.0,left,0.774,2.459,50.0,5.0,0.0,1.0,Medium,-0.018973266528024658,-45.0,-45.0,-0.2561834053924099
21,5c62c8c594e3bc0001d66cf8,21.0,7.0,left,1.467,,50.0,,0.0,1.0,High,,,-45.0,0.38321949916084475
22,5c62c8c594e3bc0001d66cf8,22.0,9.0,left,16.958,,45.0,,0.0,1.0,High,,,-45.0,2.830739698881811
23,5c62c8c594e3bc0001d66cf8,23.0,8.0,left,2.122,,13.0,,0.0,1.0,High,,,-45.0,0.7523590401917913
24,5c62c8c594e3bc0001d66cf8,24.0,6.0,left,1.429,5.083,50.0,10.0,0.0,1.0,Medium,0.9296900598732116,-40.0,-40.0,0.3569748989477304
25,5c62c8c594e3bc0001d66cf8,25.0,4.0,right,5.549,,42.0,,1.0,0.0,Medium,,,-40.0,1.7136177313437642
26,5c62c8c594e3bc0001d66cf8,26.0,5.0,left,1.017,,50.0,,0.0,1.0,Medium,,,-40.0,0.016857117066422806
27,5c62c8c594e3bc0001d66cf8,27.0,3.0,right,1.497,2.881,50.0,0.0,1.0,0.0,Low,-0.967636592929261,,-40.0,0.40346310543749137
28,5c62c8c594e3bc0001d66cf8,28.0,6.0,left,1.196,,50.0,,0.0,1.0,Medium,,,-40.0,0.17898265552843995
29,5c62c8c594e3bc0001d66cf8,29.0,6.0,left,0.765,1.934,25.0,5.0,0.0,1.0,Medium,-0.018973266528024658,-20.0,-20.0,-0.2678794451556012
30,5c62c8c594e3bc0001d66cf8,0.0,5.0,left,1.08,,50.0,,0.0,1.0,Medium,,,-20.0,0.0769610411361284
31,5c62c8c594e3bc0001d66cf8,1.0,2.0,right,29.713,3.05,50.0,5.0,1.0,0.0,Low,-0.018973266528024658,-45.0,-45.0,3.3915846604790953
32,5c62c8c594e3bc0001d66cf8,2.0,8.0,left,7.247,,6.0,,0.0,1.0,High,,,-45.0,1.9805875901271444
33,5c62c8c594e3bc0001d66cf8,3.0,7.0,left,4.001,,50.0,,0.0,1.0,High,,,-45.0,1.3865443298750981
34,5c62c8c594e3bc0001d66cf8,4.0,3.0,left,2.364,,44.0,,0.0,1.0,Low,,,-45.0,0.8603550995438517
35,5c62c8c594e3bc0001d66cf8,5.0,7.0,left,1.319,10.956,50.0,10.0,0.0,1.0,High,0.9296900598732116,-40.0,-40.0,0.2768738737351775
36,5c62c8c594e3bc0001d66cf8,6.0,1.0,right,1.226,,43.0,,1.0,0.0,Low,,,-40.0,0.20375683751401963
37,5c62c8c594e3bc0001d66cf8,7.0,1.0,right,3.365,,50.0,,1.0,0.0,Low,,,-40.0,1.213427963096691
38,5c62c8c594e3bc0001d66cf8,8.0,9.0,left,34.53,4.3,42.0,17.0,0.0,1.0,High,2.2578187168349424,-25.0,-25.0,3.541828511401901
39,5c62c8c594e3bc0001d66cf8,9.0,5.0,left,0.962,,50.0,,0.0,1.0,Medium,,,-25.0,-0.038740828316430595
40,5c62c8c594e3bc0001d66cf8,10.0,6.0,left,0.62,2.806,50.0,5.0,0.0,1.0,Medium,-0.018973266528024658,-45.0,-45.0,-0.4780358009429998
41,5c62c8c594e3bc0001d66cf8,11.0,2.0,right,1.446,,26.0,,1.0,0.0,Low,,,-45.0,0.3688011237365729
42,5c62c8c594e3bc0001d66cf8,12.0,7.0,left,0.993,,25.0,,0.0,1.0,High,,,-45.0,-0.007024614936964466
43,5c62c8c594e3bc0001d66cf8,13.0,6.0,left,0.904,,50.0,,0.0,1.0,Medium,,,-45.0,-0.10092591858996053
44,5c62c8c594e3bc0001d66cf8,14.0,5.0,left,1.397,4.159,50.0,10.0,0.0,1.0,Medium,0.9296900598732116,-40.0,-40.0,0.3343270802748248
45,5c62c8c594e3bc0001d66cf8,15.0,4.0,left,1.242,,50.0,,0.0,1.0,Medium,,,-40.0,0.21672298351128702
46,5c62c8c594e3bc0001d66cf8,16.0,5.0,left,1.013,,36.0,,0.0,1.0,Medium,,,-40.0,0.01291622526654623
47,5c62c8c594e3bc0001d66cf8,17.0,6.0,left,1.018,47.173,8.0,3.0,0.0,1.0,Medium,-0.39843859708851914,-5.0,-5.0,0.017839918128331016
48,5c62c8c594e3bc0001d66cf8,18.0,4.0,left,1.041,,27.0,,0.0,1.0,Medium,,,-5.0,0.04018178963283176
49,5c62c8c594e3bc0001d66cf8,19.0,3.0,right,1.67,,27.0,,1.0,0.0,Low,,,-5.0,0.5128236264286637
50,5c62c8c594e3bc0001d66cf8,20.0,4.0,left,5.637,2.843,37.0,0.0,0.0,1.0,Medium,-0.967636592929261,,-5.0,1.7293520090994379
51,5c62c8c594e3bc0001d66cf8,21.0,6.0,left,10.145,,50.0,,0.0,1.0,Medium,,,-5.0,2.316980973277778
52,5c62c8c594e3bc0001d66cf8,22.0,5.0,left,7.213,,9.0,,0.0,1.0,Medium,,,-5.0,1.9758849535215355
53,5c62c8c594e3bc0001d66cf8,23.0,8.0,left,6.651,,50.0,,0.0,1.0,High,,,-5.0,1.894767219302284
54,5c62c8c594e3bc0001d66cf8,24.0,2.0,right,1.118,33.9,50.0,0.0,1.0,0.0,Low,-0.967636592929261,,-5.0,0.11154137473290751
55,5c62c8c594e3bc0001d66cf8,25.0,8.0,left,2.36,,50.0,,0.0,1.0,High,,,-5.0,0.8586616190375187
56,5c62c8c594e3bc0001d66cf8,26.0,9.0,left,10.353,,50.0,,0.0,1.0,High,,,-5.0,2.337276332783976
57,5c62c8c594e3bc0001d66cf8,27.0,3.0,right,2.319,2.447,50.0,15.0,1.0,0.0,Low,1.878353386274448,-35.0,-35.0,0.8411360582733945
58,5c62c8c594e3bc0001d66cf8,28.0,5.0,left,8.028,,50.0,,0.0,1.0,Medium,,,-35.0,2.082935430934092
59,5c62c8c594e3bc0001d66cf8,29.0,4.0,left,0.768,2.176,34.0,4.0,0.0,1.0,Medium,-0.2087059318082719,-30.0,-30.0,-0.26396554583446485
0,60a7d7b70d3cf8f48a8a490d,0.0,5.0,left,1.8903,,50.0,,0.0,1.0,Medium,,,,0.6367355466339825
1,60a7d7b70d3cf8f48a8a490d,1.0,4.0,right,1.4195,,50.0,,1.0,0.0,Medium,,,,0.35030469693088884
2,60a7d7b70d3cf8f48a8a490d,2.0,8.0,left,1.0204,,50.0,,0.0,1.0,High,,,,0.020194707285519253
3,60a7d7b70d3cf8f48a8a490d,3.0,7.0,right,1.0278,3.2256,38.0,28.0,1.0,0.0,High,0.7735270015437854,-10.0,-10.0,0.027420595575992218
4,60a7d7b70d3cf8f48a8a490d,4.0,3.0,right,2.1202,,16.0,,1.0,0.0,Low,,,-10.0,0.7515104238568603
5,60a7d7b70d3cf8f48a8a490d,5.0,7.0,left,1.1296,,35.0,,0.0,1.0,High,,,-10.0,0.12186358775684052
6,60a7d7b70d3cf8f48a8a490d,6.0,6.0,right,2.4352,2.4052,32.0,12.0,1.0,0.0,Medium,-0.5790885202814133,-20.0,-20.0,0.8900288886852297
7,60a7d7b70d3cf8f48a8a490d,7.0,3.0,left,1.0022,,50.0,,0.0,1.0,Low,,,-20.0,0.0021975835434872013
8,60a7d7b70d3cf8f48a8a490d,8.0,5.0,left,1.3195,2.5683,50.0,10.0,0.0,1.0,Medium,-0.7481654605095632,-40.0,-40.0,0.2772528769612416
9,60a7d7b70d3cf8f48a8a490d,9.0,8.0,left,0.7738,,44.0,,0.0,1.0,High,,,-40.0,-0.2564418367157244
10,60a7d7b70d3cf8f48a8a490d,10.0,5.0,right,0.7053,,31.0,,1.0,0.0,Medium,,,-40.0,-0.3491320347680035
11,60a7d7b70d3cf8f48a8a490d,11.0,6.0,left,0.7708,1.5605,50.0,35.0,0.0,1.0,Medium,1.36529629234231,-15.0,-15.0,-0.26032634244192565
12,60a7d7b70d3cf8f48a8a490d,12.0,9.0,left,0.8377,,48.0,,0.0,1.0,High,,,-15.0,-0.17709523782237324
13,60a7d7b70d3cf8f48a8a490d,13.0,1.0,right,2.419,,50.0,,1.0,0.0,Low,,,-15.0,0.8833542316278902
14,60a7d7b70d3cf8f48a8a490d,14.0,2.0,right,1.7193,3.9227,14.0,9.0,1.0,0.0,Low,-0.8327039306236381,-5.0,-5.0,0.5419172312436644
15,60a7d7b70d3cf8f48a8a490d,15.0,8.0,left,1.8589,,23.0,,0.0,1.0,High,,,-5.0,0.6199849149309613
16,60a7d7b70d3cf8f48a8a490d,16.0,4.0,right,2.0042,,43.0,,1.0,0.0,Medium,,,-5.0,0.6952449786420914
17,60a7d7b70d3cf8f48a8a490d,17.0,4.0,left,0.9751,1.5624,50.0,20.0,0.0,1.0,Medium,0.09721924063118605,-30.0,-30.0,-0.025215249141063763
18,60a7d7b70d3cf8f48a8a490d,18.0,5.0,left,2.0205,,25.0,,0.0,1.0,Medium,,,-30.0,0.7033450055363915
19,60a7d7b70d3cf8f48a8a490d,19.0,9.0,right,2.89,,50.0,,1.0,0.0,High,,,-30.0,1.0612565021243408
20,60a7d7b70d3cf8f48a8a490d,20.0,2.0,right,2.4875,,50.0,,1.0,0.0,Low,,,-30.0,0.9112781900506107
21,60a7d7b70d3cf8f48a8a490d,21.0,3.0,left,1.1445,1.9407,50.0,10.0,0.0,1.0,Low,-0.7481654605095632,-40.0,-40.0,0.1349678604104844
22,60a7d7b70d3cf8f48a8a490d,22.0,5.0,left,2.3882,,32.0,,0.0,1.0,Medium,,,-40.0,0.8705399441171472
23,60a7d7b70d3cf8f48a8a490d,23.0,6.0,right,0.8733,,50.0,,1.0,0.0,Medium,,,-40.0,-0.13547613956244986
24,60a7d7b70d3cf8f48a8a490d,24.0,6.0,left,0.7191,,50.0,,0.0,1.0,Medium,,,-40.0,-0.3297548488736887
25,60a7d7b70d3cf8f48a8a490d,25.0,5.0,left,0.7746,3.4894,50.0,15.0,0.0,1.0,Medium,-0.3254731099391886,-35.0,-35.0,-0.2554085119014853
26,60a7d7b70d3cf8f48a8a490d,26.0,7.0,left,0.7686,,50.0,,0.0,1.0,High,,,-35.0,-0.26318460085139356
27,60a7d7b70d3cf8f48a8a490d,27.0,2.0,right,1.6273,4.4164,14.0,19.0,1.0,0.0,Low,0.012680770517111119,5.0,5.0,0.48692219968443157
28,60a7d7b70d3cf8f48a8a490d,28.0,1.0,right,1.5863,,8.0,,1.0,0.0,Low,,,5.0,0.4614042604322725
29,60a7d7b70d3cf8f48a8a490d,29.0,4.0,left,3.7708,4.5945,23.0,18.0,0.0,1.0,Medium,-0.07185769959696381,-5.0,-5.0,1.3272871805398583
30,60a7d7b70d3cf8f48a8a490d,0.0,5.0,right,2.7437,,15.0,,1.0,0.0,Medium,,,-5.0,1.009307374440675
31,60a7d7b70d3cf8f48a8a490d,1.0,5.0,left,1.1178,,39.0,,0.0,1.0,Medium,,,-5.0,0.11136246785346064
32,60a7d7b70d3cf8f48a8a490d,2.0,5.0,left,1.588,,50.0,,0.0,1.0,Medium,,,-5.0,0.462475362824944
33,60a7d7b70d3cf8f48a8a490d,3.0,2.0,right,1.3462,4.0409,9.0,14.0,1.0,0.0,Low,-0.4100115800532635,5.0,5.0,0.29728580859447573
34,60a7d7b70d3cf8f48a8a490d,4.0,3.0,right,0.1199,,49.0,,1.0,0.0,Low,,,5.0,-2.1210972169486686
35,60a7d7b70d3cf8f48a8a490d,5.0,2.0,left,0.9904,,50.0,,0.0,1.0,Low,,,5.0,-0.00964637705180545
36,60a7d7b70d3cf8f48a8a490d,6.0,1.0,right,4.3038,16.9944,50.0,25.0,1.0,0.0,Low,0.5199115912015607,-25.0,-25.0,1.4594983533783066
37,60a7d7b70d3cf8f48a8a490d,7.0,4.0,left,3.4869,,50.0,,0.0,1.0,Medium,,,-25.0,1.2490130893356348
38,60a7d7b70d3cf8f48a8a490d,8.0,5.0,left,16.8025,2.4489,7.0,7.0,0.0,1.0,Medium,-1.001780870851788,0.0,0.0,2.8215276848619837
39,60a7d7b70d3cf8f48a8a490d,9.0,5.0,right,1.5718,,27.0,,1.0,0.0,Medium,,,0.0,0.4522214594499376
40,60a7d7b70d3cf8f48a8a490d,10.0,7.0,left,1.2077,,7.0,,0.0,1.0,High,,,0.0,0.1887177242991925
41,60a7d7b70d3cf8f48a8a490d,11.0,9.0,left,2.2613,3.2952,6.0,41.0,0.0,1.0,High,1.8725271130267596,35.0,35.0,0.8159398691468113
42,60a7d7b70d3cf8f48a8a490d,12.0,4.0,right,2.6717,,50.0,,1.0,0.0,Medium,,,35.0,0.9827149739219374
43,60a7d7b70d3cf8f48a8a490d,13.0,6.0,left,11.0712,,50.0,,0.0,1.0,Medium,,,35.0,2.404347141929583
44,60a7d7b70d3cf8f48a8a490d,14.0,1.0,right,7.6287,5.4232,50.0,20.0,1.0,0.0,Low,0.09721924063118605,-30.0,-30.0,2.0319174507013944
45,60a7d7b70d3cf8f48a8a490d,15.0,8.0,left,4.2481,,35.0,,0.0,1.0,High,,,-30.0,1.446471824152207
46,60a7d7b70d3cf8f48a8a490d,16.0,6.0,left,2.3614,,31.0,,0.0,1.0,Medium,,,-30.0,0.8592546634908724
47,60a7d7b70d3cf8f48a8a490d,17.0,4.0,right,1.6498,3.638,50.0,15.0,1.0,0.0,Medium,-0.3254731099391886,-35.0,-35.0,0.5006540684444942
48,60a7d7b70d3cf8f48a8a490d,18.0,2.0,right,2.1196,,38.0,,1.0,0.0,Low,,,-35.0,0.75122739163647
49,60a7d7b70d3cf8f48a8a490d,19.0,7.0,left,31.8373,,44.0,,0.0,1.0,High,,,-35.0,3.460638558385569
50,60a7d7b70d3cf8f48a8a490d,20.0,3.0,right,1.52,,48.0,,1.0,0.0,Low,,,-35.0,0.41871033485818504
51,60a7d7b70d3cf8f48a8a490d,21.0,6.0,left,2.103,2.9933,40.0,5.0,0.0,1.0,Medium,-1.170857811079938,-35.0,-35.0,0.7433648967205628
52,60a7d7b70d3cf8f48a8a490d,22.0,7.0,left,2.6041,,10.0,,0.0,1.0,High,,,-35.0,0.9570871260667245
53,60a7d7b70d3cf8f48a8a490d,23.0,8.0,left,0.8411,,39.0,,0.0,1.0,High,,,-35.0,-0.1730447200137455
54,60a7d7b70d3cf8f48a8a490d,24.0,4.0,right,0.8877,,49.0,,1.0,0.0,Medium,,,-35.0,-0.11912143090786334
55,60a7d7b70d3cf8f48a8a490d,25.0,8.0,left,0.605,3.8426,41.0,16.0,0.0,1.0,High,-0.24093463982511365,-25.0,-25.0,-0.5025268209512956
56,60a7d7b70d3cf8f48a8a490d,26.0,5.0,left,1.22,,50.0,,0.0,1.0,Medium,,,-25.0,0.19885085874516517
57,60a7d7b70d3cf8f48a8a490d,27.0,3.0,left,3.1684,6.0715,18.0,8.0,0.0,1.0,Low,-0.917242400737713,-10.0,-10.0,1.1532267286079876
58,60a7d7b70d3cf8f48a8a490d,28.0,6.0,left,9.7223,,7.0,,0.0,1.0,Medium,,,-10.0,2.2744222159953495
59,60a7d7b70d3cf8f48a8a490d,29.0,9.0,left,1.7077,7.6213,7.0,50.0,0.0,1.0,High,2.633373344053434,43.0,43.0,0.5351474359110563
0,54847f1cfdf99b07b28f22f9,0.0,5.0,left,2.737,,50.0,,0.0,1.0,Medium,,,,1.006862430058542
1,54847f1cfdf99b07b28f22f9,1.0,7.0,left,1.384,,40.0,,0.0,1.0,High,,,,0.3249778571954777
2,54847f1cfdf99b07b28f22f9,2.0,3.0,left,1.37,,50.0,,0.0,1.0,Low,,,,0.3148107398400336
3,54847f1cfdf99b07b28f22f9,3.0,1.0,left,2.738,15.026,40.0,25.0,0.0,1.0,Low,-0.07729710710819361,-15.0,-15.0,1.007227726866257
4,54847f1cfdf99b07b28f22f9,4.0,3.0,left,1.373,,25.0,,0.0,1.0,Low,,,-15.0,0.316998126785834
5,54847f1cfdf99b07b28f22f9,5.0,6.0,left,0.687,,17.0,,0.0,1.0,Medium,,,-15.0,-0.37542098675978763
6,54847f1cfdf99b07b28f22f9,6.0,6.0,left,1.375,,27.0,,0.0,1.0,Medium,,,-15.0,0.3184537311185346
7,54847f1cfdf99b07b28f22f9,7.0,4.0,left,0.69,9.931,50.0,30.0,0.0,1.0,Medium,1.8551305705966534,-20.0,-20.0,-0.37106368139083207
8,54847f1cfdf99b07b28f22f9,8.0,4.0,left,0.688,,50.0,,0.0,1.0,Medium,,,-20.0,-0.37396644104879345
9,54847f1cfdf99b07b28f22f9,9.0,8.0,left,0.695,,50.0,,0.0,1.0,High,,,-20.0,-0.363843433417345
10,54847f1cfdf99b07b28f22f9,10.0,2.0,left,1.39,10.029,50.0,25.0,0.0,1.0,Low,-0.07729710710819361,-25.0,-25.0,0.3293037471426003
11,54847f1cfdf99b07b28f22f9,11.0,8.0,left,1.369,,40.0,,0.0,1.0,High,,,-25.0,0.3140805463063118
12,54847f1cfdf99b07b28f22f9,12.0,1.0,left,1.359,7.226,50.0,25.0,0.0,1.0,Low,-0.07729710710819361,-25.0,-25.0,0.30674913516900665
13,54847f1cfdf99b07b28f22f9,13.0,5.0,left,0.691,,17.0,,0.0,1.0,Medium,,,-25.0,-0.36961545521446726
14,54847f1cfdf99b07b28f22f9,14.0,3.0,left,1.365,,34.0,,0.0,1.0,Low,,,-25.0,0.31115442863692305
15,54847f1cfdf99b07b28f22f9,15.0,5.0,left,1.381,11.461,10.0,25.0,0.0,1.0,Medium,-0.07729710710819361,15.0,15.0,0.3228078744271551
16,54847f1cfdf99b07b28f22f9,16.0,5.0,left,1.371,,50.0,,0.0,1.0,Medium,,,15.0,0.31554040058017735
17,54847f1cfdf99b07b28f22f9,17.0,7.0,left,0.694,,29.0,,0.0,1.0,High,,,15.0,-0.36528331847533263
18,54847f1cfdf99b07b28f22f9,18.0,8.0,left,1.384,7.811,38.0,28.0,0.0,1.0,High,1.0821594995147146,-10.0,-10.0,0.3249778571954777
19,54847f1cfdf99b07b28f22f9,19.0,7.0,left,0.692,,50.0,,0.0,1.0,High,,,-10.0,-0.36816932336446756
20,54847f1cfdf99b07b28f22f9,20.0,5.0,left,0.69,,44.0,,0.0,1.0,Medium,,,-10.0,-0.37106368139083207
21,54847f1cfdf99b07b28f22f9,21.0,4.0,left,1.419,,16.0,,0.0,1.0,Medium,,,-10.0,0.34995239817790563
22,54847f1cfdf99b07b28f22f9,22.0,6.0,left,0.743,7.107,50.0,30.0,0.0,1.0,Medium,1.8551305705966534,-20.0,-20.0,-0.2970592342643779
23,54847f1cfdf99b07b28f22f9,23.0,9.0,left,0.693,,50.0,,0.0,1.0,High,,,-20.0,-0.3667252797922339
24,54847f1cfdf99b07b28f22f9,24.0,5.0,left,0.679,,9.0,,0.0,1.0,Medium,,,-20.0,-0.3871341514234409
25,54847f1cfdf99b07b28f22f9,25.0,6.0,left,0.736,12.803,16.0,26.0,0.0,1.0,Medium,0.3091884284327758,10.0,10.0,-0.3065251602532608
26,54847f1cfdf99b07b28f22f9,26.0,2.0,left,1.37,,50.0,,0.0,1.0,Low,,,10.0,0.3148107398400336
27,54847f1cfdf99b07b28f22f9,27.0,9.0,left,0.682,9.287,50.0,25.0,0.0,1.0,High,-0.07729710710819361,-25.0,-25.0,-0.38272562113867487
28,54847f1cfdf99b07b28f22f9,28.0,4.0,left,2.059,,50.0,,0.0,1.0,Medium,,,-25.0,0.7222204280456525
29,54847f1cfdf99b07b28f22f9,29.0,2.0,left,1.371,11.408,50.0,25.0,0.0,1.0,Low,-0.07729710710819361,-25.0,-25.0,0.31554040058017735
30,54847f1cfdf99b07b28f22f9,0.0,5.0,left,2.049,,50.0,,0.0,1.0,Medium,,,-25.0,0.7173518692567626
31,54847f1cfdf99b07b28f22f9,1.0,8.0,left,1.355,,33.0,,0.0,1.0,High,,,-25.0,0.3038014543316642
32,54847f1cfdf99b07b28f22f9,2.0,6.0,left,1.36,,39.0,,0.0,1.0,Medium,,,-25.0,0.3074846997479607
33,54847f1cfdf99b07b28f22f9,3.0,7.0,left,0.683,13.558,50.0,25.0,0.0,1.0,High,-0.07729710710819361,-25.0,-25.0,-0.3812604194113469
34,54847f1cfdf99b07b28f22f9,4.0,6.0,left,1.37,,50.0,,0.0,1.0,Medium,,,-25.0,0.3148107398400336
35,54847f1cfdf99b07b28f22f9,5.0,5.0,left,0.688,,19.0,,0.0,1.0,Medium,,,-25.0,-0.37396644104879345
36,54847f1cfdf99b07b28f22f9,6.0,8.0,left,0.694,,45.0,,0.0,1.0,High,,,-25.0,-0.36528331847533263
37,54847f1cfdf99b07b28f22f9,7.0,3.0,left,1.359,9.969,50.0,25.0,0.0,1.0,Low,-0.07729710710819361,-25.0,-25.0,0.30674913516900665
38,54847f1cfdf99b07b28f22f9,8.0,6.0,left,0.685,,28.0,,0.0,1.0,Medium,,,-25.0,-0.3783364407199117
39,54847f1cfdf99b07b28f22f9,9.0,7.0,left,0.689,,50.0,,0.0,1.0,High,,,-25.0,-0.37251400796847856
40,54847f1cfdf99b07b28f22f9,10.0,4.0,left,0.684,7.116,50.0,20.0,0.0,1.0,Medium,-2.0097247848130406,-30.0,-30.0,-0.3797973613595865
41,54847f1cfdf99b07b28f22f9,11.0,1.0,left,1.385,,7.0,,0.0,1.0,Low,,,-30.0,0.32570013963930183
42,54847f1cfdf99b07b28f22f9,12.0,4.0,left,0.684,9.976,50.0,25.0,0.0,1.0,Medium,-0.07729710710819361,-25.0,-25.0,-0.3797973613595865
43,54847f1cfdf99b07b28f22f9,13.0,9.0,left,0.701,,29.0,,0.0,1.0,High,,,-25.0,-0.355247391947547
44,54847f1cfdf99b07b28f22f9,14.0,4.0,left,0.687,,50.0,,0.0,1.0,Medium,,,-25.0,-0.37542098675978763
45,54847f1cfdf99b07b28f22f9,15.0,5.0,left,2.049,11.368,50.0,20.0,0.0,1.0,Medium,-2.0097247848130406,-30.0,-30.0,0.7173518692567626
46,54847f1cfdf99b07b28f22f9,16.0,2.0,left,1.364,,50.0,,0.0,1.0,Low,,,-30.0,0.3104215594212704
47,54847f1cfdf99b07b28f22f9,17.0,4.0,left,0.009,,17.0,,0.0,1.0,Medium,,,-30.0,-4.710530701645918
48,54847f1cfdf99b07b28f22f9,18.0,3.0,left,2.73,9.972,17.0,22.0,0.0,1.0,Low,-1.2367537137311018,5.0,5.0,1.0043016091968684
49,54847f1cfdf99b07b28f22f9,19.0,5.0,left,2.18,,38.0,,0.0,1.0,Medium,,,5.0,0.7793248768009977
50,54847f1cfdf99b07b28f22f9,20.0,9.0,left,1.36,,23.0,,0.0,1.0,High,,,5.0,0.3074846997479607
51,54847f1cfdf99b07b28f22f9,21.0,7.0,left,0.679,,42.0,,0.0,1.0,High,,,5.0,-0.3871341514234409
52,54847f1cfdf99b07b28f22f9,22.0,1.0,left,1.365,12.078,50.0,25.0,0.0,1.0,Low,-0.07729710710819361,-25.0,-25.0,0.31115442863692305
53,54847f1cfdf99b07b28f22f9,23.0,5.0,left,2.033,,50.0,,0.0,1.0,Medium,,,-25.0,0.7095125346462096
54,54847f1cfdf99b07b28f22f9,24.0,6.0,left,1.364,,10.0,,0.0,1.0,Medium,,,-25.0,0.3104215594212704
55,54847f1cfdf99b07b28f22f9,25.0,2.0,left,1.376,2.132,30.0,25.0,0.0,1.0,Low,-0.07729710710819361,-5.0,-5.0,0.31918073951115183
56,54847f1cfdf99b07b28f22f9,26.0,3.0,left,1.364,,50.0,,0.0,1.0,Low,,,-5.0,0.3104215594212704
57,54847f1cfdf99b07b28f22f9,27.0,5.0,left,0.687,7.885,23.0,28.0,0.0,1.0,Medium,1.0821594995147146,5.0,5.0,-0.37542098675978763
58,54847f1cfdf99b07b28f22f9,28.0,2.0,left,4.107,,13.0,,0.0,1.0,Low,,,5.0,1.4126928349744217
59,54847f1cfdf99b07b28f22f9,29.0,8.0,left,0.695,13.478,50.0,25.0,0.0,1.0,High,-0.07729710710819361,-25.0,-25.0,-0.363843433417345
0,54e32a60fdf99b3eae9de85b,0.0,5.0,left,6.5789,,50.0,,0.0,1.0,Medium,,,,1.8838675581099404
1,54e32a60fdf99b3eae9de85b,1.0,6.0,left,5.5629,23.5702,40.0,25.0,0.0,1.0,Medium,0.2644043132414998,-15.0,-15.0,1.71611955501931
2,54e32a60fdf99b3eae9de85b,2.0,3.0,left,18.7132,,50.0,,0.0,1.0,Low,,,-15.0,2.929229157195712
3,54e32a60fdf99b3eae9de85b,3.0,2.0,left,3.7719,2.5015,13.0,18.0,0.0,1.0,Low,-0.9296796820426924,5.0,5.0,1.3275788532851083
4,54e32a60fdf99b3eae9de85b,4.0,8.0,left,2.7031,,50.0,,0.0,1.0,High,,,5.0,0.9943992625404257
5,54e32a60fdf99b3eae9de85b,5.0,3.0,left,3.4367,,50.0,,0.0,1.0,Low,,,5.0,1.2345117086347683
6,54e32a60fdf99b3eae9de85b,6.0,5.0,left,1.1669,5.0363,42.0,27.0,0.0,1.0,Medium,0.6055711690369833,-15.0,-15.0,0.1543506598299246
7,54e32a60fdf99b3eae9de85b,7.0,4.0,left,4.5674,,50.0,,0.0,1.0,Medium,,,-15.0,1.5189441152153544
8,54e32a60fdf99b3eae9de85b,8.0,4.0,left,9.5061,,50.0,,0.0,1.0,Medium,,,-15.0,2.2519336978082727
9,54e32a60fdf99b3eae9de85b,9.0,7.0,left,8.5788,15.64,33.0,23.0,0.0,1.0,High,-0.07676254255398367,-10.0,-10.0,2.1492940435786694
10,54e32a60fdf99b3eae9de85b,10.0,9.0,left,9.6304,,50.0,,0.0,1.0,High,,,-10.0,2.2649247618113693
11,54e32a60fdf99b3eae9de85b,11.0,3.0,left,8.0918,,34.0,,0.0,1.0,Low,,,-10.0,2.090851203231399
12,54e32a60fdf99b3eae9de85b,12.0,1.0,left,5.3281,,50.0,,0.0,1.0,Low,,,-10.0,1.6729947018307256
13,54e32a60fdf99b3eae9de85b,13.0,5.0,left,3.0449,2.0028,8.0,18.0,0.0,1.0,Medium,-0.9296796820426924,10.0,10.0,1.1134680599000961
14,54e32a60fdf99b3eae9de85b,14.0,1.0,left,7.0815,,50.0,,0.0,1.0,Low,,,10.0,1.9574857496723141
15,54e32a60fdf99b3eae9de85b,15.0,5.0,left,6.1455,,50.0,,0.0,1.0,Medium,,,10.0,1.8157201066728985
16,54e32a60fdf99b3eae9de85b,16.0,6.0,left,2.9504,,37.0,,0.0,1.0,Medium,,,10.0,1.0819407543801376
17,54e32a60fdf99b3eae9de85b,17.0,8.0,left,3.0534,2.7129,50.0,20.0,0.0,1.0,High,-0.5885128262472089,-30.0,-30.0,1.116255723840705
18,54e32a60fdf99b3eae9de85b,18.0,9.0,left,17.3123,,39.0,,0.0,1.0,High,,,-30.0,2.851417231534258
19,54e32a60fdf99b3eae9de85b,19.0,5.0,left,1.6503,,50.0,,0.0,1.0,Medium,,,-30.0,0.500957089567385
20,54e32a60fdf99b3eae9de85b,20.0,4.0,left,1.7603,12.0782,50.0,25.0,0.0,1.0,Medium,0.2644043132414998,-25.0,-25.0,0.5654842490697896
21,54e32a60fdf99b3eae9de85b,21.0,8.0,left,16.9287,,31.0,,0.0,1.0,High,,,-25.0,2.82901040642774
22,54e32a60fdf99b3eae9de85b,22.0,7.0,left,1.8691,4.5213,26.0,31.0,0.0,1.0,High,1.2879048806279503,5.0,5.0,0.6254570315899951
23,54e32a60fdf99b3eae9de85b,23.0,6.0,left,0.5168,,50.0,,0.0,1.0,Medium,,,5.0,-0.6600993265137449
24,54e32a60fdf99b3eae9de85b,24.0,6.0,left,0.5161,,50.0,,0.0,1.0,Medium,,,5.0,-0.6614547338274556
25,54e32a60fdf99b3eae9de85b,25.0,2.0,left,0.4908,,19.0,,0.0,1.0,Low,,,5.0,-0.7117185661453806
26,54e32a60fdf99b3eae9de85b,26.0,4.0,left,0.3378,2.3254,11.0,26.0,0.0,1.0,Medium,0.43498774113924155,15.0,15.0,-1.0853012746084374
27,54e32a60fdf99b3eae9de85b,27.0,2.0,left,3.7332,,50.0,,0.0,1.0,Low,,,15.0,1.3172657747094547
28,54e32a60fdf99b3eae9de85b,28.0,7.0,left,0.51,,50.0,,0.0,1.0,High,,,15.0,-0.6733445532637656
29,54e32a60fdf99b3eae9de85b,29.0,5.0,left,0.6347,5.5003,50.0,20.0,0.0,1.0,Medium,-0.5885128262472089,-30.0,-30.0,-0.4546028326697126
30,54e32a60fdf99b3eae9de85b,0.0,5.0,left,0.9443,,50.0,,0.0,1.0,Medium,,,-30.0,-0.05731136671311352
31,54e32a60fdf99b3eae9de85b,1.0,6.0,left,0.5239,2.4723,50.0,25.0,0.0,1.0,Medium,0.2644043132414998,-25.0,-25.0,-0.646454452567963
32,54e32a60fdf99b3eae9de85b,2.0,8.0,left,0.6061,,50.0,,0.0,1.0,High,,,-25.0,-0.5007102900248978
33,54e32a60fdf99b3eae9de85b,3.0,5.0,left,0.5553,1.8671,50.0,30.0,0.0,1.0,Medium,1.1173214527302084,-20.0,-20.0,-0.5882467707345755
34,54e32a60fdf99b3eae9de85b,4.0,6.0,left,0.5535,,50.0,,0.0,1.0,Medium,,,-20.0,-0.5914935268334455
35,54e32a60fdf99b3eae9de85b,5.0,3.0,left,0.5279,,50.0,,0.0,1.0,Low,,,-20.0,-0.6388484071525664
36,54e32a60fdf99b3eae9de85b,6.0,3.0,left,0.525,1.2338,25.0,10.0,0.0,1.0,Low,-2.2943471052246265,-15.0,-15.0,-0.6443570163905132
37,54e32a60fdf99b3eae9de85b,7.0,7.0,left,0.7771,,10.0,,0.0,1.0,High,,,-15.0,-0.2521862367669405
38,54e32a60fdf99b3eae9de85b,8.0,2.0,left,0.9834,,24.0,,0.0,1.0,Low,,,-15.0,-0.016739324004297996
39,54e32a60fdf99b3eae9de85b,9.0,3.0,left,0.5143,2.0292,50.0,20.0,0.0,1.0,Low,-0.5885128262472089,-30.0,-30.0,-0.6649485262012665
40,54e32a60fdf99b3eae9de85b,10.0,4.0,left,0.5386,,50.0,,0.0,1.0,Medium,,,-30.0,-0.6187820986046386
41,54e32a60fdf99b3eae9de85b,11.0,5.0,left,1.1972,,50.0,,0.0,1.0,Medium,,,-30.0,0.17998549699640684
42,54e32a60fdf99b3eae9de85b,12.0,8.0,left,0.9248,,50.0,,0.0,1.0,High,,,-30.0,-0.07817778106402408
43,54e32a60fdf99b3eae9de85b,13.0,7.0,left,0.6547,1.5857,50.0,35.0,0.0,1.0,High,1.9702385922189172,-15.0,-15.0,-0.4235781635350914
44,54e32a60fdf99b3eae9de85b,14.0,7.0,left,0.8035,,50.0,,0.0,1.0,High,,,-15.0,-0.21877809380456978
45,54e32a60fdf99b3eae9de85b,15.0,4.0,left,1.5074,,21.0,,0.0,1.0,Medium,,,-15.0,0.4103863124272325
46,54e32a60fdf99b3eae9de85b,16.0,9.0,left,0.4573,,9.0,,0.0,1.0,High,,,-15.0,-0.7824156483181276
47,54e32a60fdf99b3eae9de85b,17.0,1.0,left,1.009,1.3699,50.0,30.0,0.0,1.0,Low,1.1173214527302084,-20.0,-20.0,0.008959741371471801
48,54e32a60fdf99b3eae9de85b,18.0,2.0,left,0.8391,,50.0,,0.0,1.0,Low,,,-20.0,-0.17542539010611338
49,54e32a60fdf99b3eae9de85b,19.0,9.0,left,0.5085,,50.0,,0.0,1.0,High,,,-20.0,-0.6762900634935225
50,54e32a60fdf99b3eae9de85b,20.0,2.0,left,0.3392,1.8734,50.0,20.0,0.0,1.0,Low,-0.5885128262472089,-30.0,-30.0,-1.081165375064389
51,54e32a60fdf99b3eae9de85b,21.0,5.0,left,1.4357,,19.0,,0.0,1.0,Medium,,,-30.0,0.3616525351515112
52,54e32a60fdf99b3eae9de85b,22.0,4.0,left,5.3062,40.4397,46.0,26.0,0.0,1.0,Medium,0.43498774113924155,-20.0,-20.0,1.6688759481827127
53,54e32a60fdf99b3eae9de85b,23.0,4.0,left,15.8114,,50.0,,0.0,1.0,Medium,,,-20.0,2.760731198850576
54,54e32a60fdf99b3eae9de85b,24.0,5.0,left,4.2142,,17.0,,0.0,1.0,Medium,,,-20.0,1.43845977510057
55,54e32a60fdf99b3eae9de85b,25.0,8.0,left,7.2057,,14.0,,0.0,1.0,High,,,-20.0,1.9748723794859113
56,54e32a60fdf99b3eae9de85b,26.0,1.0,left,14.136,4.3799,6.0,16.0,0.0,1.0,Low,-1.270846537838176,10.0,10.0,2.648724735017395
57,54e32a60fdf99b3eae9de85b,27.0,6.0,left,21.39,,34.0,,0.0,1.0,Medium,,,10.0,3.062923523094314
58,54e32a60fdf99b3eae9de85b,28.0,5.0,left,13.1047,,27.0,,0.0,1.0,Medium,,,10.0,2.5729709444873987
59,54e32a60fdf99b3eae9de85b,29.0,6.0,left,7.301,1.3629,34.0,24.0,0.0,1.0,Medium,0.09382088534375808,-10.0,-10.0,1.9880113250739486
0,559002fefdf99b3f7aada38f,0.0,5.0,left,1.497,,50.0,,0.0,1.0,Medium,,,,0.40346310543749137
1,559002fefdf99b3f7aada38f,1.0,3.0,right,2.2336,8.2167,50.0,15.0,1.0,0.0,Low,-0.33586704692337466,-35.0,-35.0,0.8036146335859163
2,559002fefdf99b3f7aada38f,2.0,9.0,left,1.6593,,10.0,,0.0,1.0,High,,,-35.0,0.506395826686605
3,559002fefdf99b3f7aada38f,3.0,2.0,right,1.2094,,30.0,,1.0,0.0,Low,,,-35.0,0.1901243688569755
4,559002fefdf99b3f7aada38f,4.0,7.0,left,1.5211,7.6869,50.0,20.0,0.0,1.0,High,0.4274671506297498,-30.0,-30.0,0.41943375733556015
5,559002fefdf99b3f7aada38f,5.0,5.0,left,1.6575,,50.0,,0.0,1.0,Medium,,,-30.0,0.5053104430778805
6,559002fefdf99b3f7aada38f,6.0,5.0,left,2.3969,5.8881,19.0,9.0,0.0,1.0,Medium,-1.2518680839871241,-10.0,-10.0,0.8741762357668077
7,559002fefdf99b3f7aada38f,7.0,8.0,left,2.3289,,50.0,,0.0,1.0,High,,,-10.0,0.8453960530976072
8,559002fefdf99b3f7aada38f,8.0,7.0,left,1.1505,,10.0,,0.0,1.0,High,,,-10.0,0.1401966304932836
9,559002fefdf99b3f7aada38f,9.0,6.0,left,2.381,3.5842,50.0,25.0,0.0,1.0,Medium,1.1908013481828743,-25.0,-25.0,0.8675205675047256
10,559002fefdf99b3f7aada38f,10.0,4.0,right,1.1676,,36.0,,1.0,0.0,Medium,,,-25.0,0.1549503599978226
11,559002fefdf99b3f7aada38f,11.0,1.0,right,1.1891,4.5545,41.0,21.0,1.0,0.0,Low,0.5801339901403747,-20.0,-20.0,0.17319671846139612
12,559002fefdf99b3f7aada38f,12.0,5.0,left,1.6478,,39.0,,0.0,1.0,Medium,,,-20.0,0.4994410648993525
13,559002fefdf99b3f7aada38f,13.0,4.0,right,1.9139,,50.0,,1.0,0.0,Medium,,,-20.0,0.6491430450618904
14,559002fefdf99b3f7aada38f,14.0,6.0,left,1.6792,,50.0,,0.0,1.0,Medium,,,-20.0,0.5183174895242862
15,559002fefdf99b3f7aada38f,15.0,4.0,left,3.5242,6.308,6.0,11.0,0.0,1.0,Medium,-0.9465344049658743,5.0,5.0,1.2596534601524931
16,559002fefdf99b3f7aada38f,16.0,8.0,left,1.3274,,17.0,,0.0,1.0,High,,,5.0,0.28322214172968746
17,559002fefdf99b3f7aada38f,17.0,3.0,right,1.2537,,30.0,,1.0,0.0,Low,,,5.0,0.22609917913984237
18,559002fefdf99b3f7aada38f,18.0,2.0,right,1.021,6.7088,50.0,15.0,1.0,0.0,Low,-0.33586704692337466,-35.0,-35.0,0.02078253918252841
19,559002fefdf99b3f7aada38f,19.0,7.0,left,1.5091,,20.0,,0.0,1.0,High,,,-35.0,0.41151344664236783
20,559002fefdf99b3f7aada38f,20.0,2.0,right,1.3869,,50.0,,1.0,0.0,Low,,,-35.0,0.3270710406801524
21,559002fefdf99b3f7aada38f,21.0,5.0,right,3.1352,,50.0,,1.0,0.0,Medium,,,-35.0,1.1426929679032847
22,559002fefdf99b3f7aada38f,22.0,4.0,right,1.3134,9.2204,50.0,5.0,1.0,0.0,Medium,-1.8625354420296236,-45.0,-45.0,0.2726191947747351
23,559002fefdf99b3f7aada38f,23.0,1.0,right,1.2353,,34.0,,1.0,0.0,Low,,,-45.0,0.21131385556063104
24,559002fefdf99b3f7aada38f,24.0,3.0,right,1.1698,,50.0,,1.0,0.0,Low,,,-45.0,0.15683279402678832
25,559002fefdf99b3f7aada38f,25.0,9.0,left,1.3535,,50.0,,0.0,1.0,High,,,-45.0,0.3026938300722188
26,559002fefdf99b3f7aada38f,26.0,8.0,left,1.3481,7.1536,47.0,22.0,0.0,1.0,High,0.7328008296509996,-25.0,-25.0,0.2986961937148814
27,559002fefdf99b3f7aada38f,27.0,6.0,left,2.361,,11.0,,0.0,1.0,Medium,,,-25.0,0.859085258103376
28,559002fefdf99b3f7aada38f,28.0,6.0,left,1.8672,,50.0,,0.0,1.0,Medium,,,-25.0,0.6244399825501544
29,559002fefdf99b3f7aada38f,29.0,5.0,left,3.0873,5.791,50.0,25.0,0.0,1.0,Medium,1.1908013481828743,-25.0,-25.0,1.1272969225280187
30,559002fefdf99b3f7aada38f,0.0,5.0,right,1.5345,,50.0,,1.0,0.0,Medium,,,-25.0,0.4282045950776538
31,559002fefdf99b3f7aada38f,1.0,8.0,left,0.9614,3.6972,35.0,20.0,0.0,1.0,High,0.4274671506297498,-15.0,-15.0,-0.0393647235222767
32,559002fefdf99b3f7aada38f,2.0,2.0,right,0.9134,,17.0,,1.0,0.0,Low,,,-15.0,-0.09058137823123848
33,559002fefdf99b3f7aada38f,3.0,7.0,left,1.3268,,50.0,,0.0,1.0,High,,,-15.0,0.2827700280907603
34,559002fefdf99b3f7aada38f,4.0,4.0,right,1.4159,6.2896,40.0,15.0,1.0,0.0,Medium,-0.33586704692337466,-25.0,-25.0,0.3477653713087881
35,559002fefdf99b3f7aada38f,5.0,3.0,right,1.1725,,8.0,,1.0,0.0,Low,,,-25.0,0.15913822133829747
36,559002fefdf99b3f7aada38f,6.0,5.0,right,2.2442,5.759,40.0,15.0,1.0,0.0,Medium,-0.33586704692337466,-25.0,-25.0,0.8083491102486289
37,559002fefdf99b3f7aada38f,7.0,3.0,right,2.0461,,50.0,,1.0,0.0,Low,,,-25.0,0.7159355421903765
38,559002fefdf99b3f7aada38f,8.0,5.0,left,1.1665,,50.0,,0.0,1.0,Medium,,,-25.0,0.1540078124793477
39,559002fefdf99b3f7aada38f,9.0,4.0,right,1.2947,3.0984,30.0,25.0,1.0,0.0,Medium,1.1908013481828743,-5.0,-5.0,0.2582790080824645
40,559002fefdf99b3f7aada38f,10.0,6.0,left,2.6661,,13.0,,0.0,1.0,Medium,,,-5.0,0.9806167304304022
41,559002fefdf99b3f7aada38f,11.0,9.0,left,1.2068,3.4251,50.0,30.0,0.0,1.0,High,1.9541355457359988,-20.0,-20.0,0.18797222830276905
42,559002fefdf99b3f7aada38f,12.0,5.0,left,2.0863,,26.0,,0.0,1.0,Medium,,,-20.0,0.7353921621536913
43,559002fefdf99b3f7aada38f,13.0,6.0,right,1.1767,,50.0,,1.0,0.0,Medium,,,-20.0,0.16271391048774625
44,559002fefdf99b3f7aada38f,14.0,8.0,left,1.2223,,50.0,,0.0,1.0,High,,,-20.0,0.20073432980108
45,559002fefdf99b3f7aada38f,15.0,2.0,right,1.0629,3.249,24.0,14.0,1.0,0.0,Low,-0.48853388643399953,-10.0,-10.0,0.06100102155739891
46,559002fefdf99b3f7aada38f,16.0,2.0,right,2.1283,,27.0,,1.0,0.0,Low,,,-10.0,0.755323538986621
47,559002fefdf99b3f7aada38f,17.0,7.0,left,1.3154,,11.0,,0.0,1.0,High,,,-10.0,0.2741408018851135
48,559002fefdf99b3f7aada38f,18.0,6.0,right,1.2772,2.3326,10.0,10.0,1.0,0.0,Medium,-1.0992012444764991,0.0,0.0,0.24467018185848982
49,559002fefdf99b3f7aada38f,19.0,5.0,left,4.6941,,12.0,,0.0,1.0,Medium,,,0.0,1.5463064009939842
50,559002fefdf99b3f7aada38f,20.0,7.0,left,1.4777,,47.0,,0.0,1.0,High,,,0.0,0.3904868249274512
51,559002fefdf99b3f7aada38f,21.0,1.0,right,1.2642,,15.0,,1.0,0.0,Low,,,0.0,0.23443951105606128
52,559002fefdf99b3f7aada38f,22.0,9.0,left,1.7948,3.4628,22.0,22.0,0.0,1.0,High,0.7328008296509996,0.0,0.0,0.5848935951196912
53,559002fefdf99b3f7aada38f,23.0,3.0,right,1.1791,,50.0,,1.0,0.0,Low,,,0.0,0.16475143560049063
54,559002fefdf99b3f7aada38f,24.0,4.0,right,1.6626,,23.0,,1.0,0.0,Medium,,,0.0,0.5083826421148507
55,559002fefdf99b3f7aada38f,25.0,5.0,left,1.9987,,50.0,,0.0,1.0,Medium,,,0.0,0.6924969692183589
56,559002fefdf99b3f7aada38f,26.0,4.0,right,0.8789,6.3099,50.0,10.0,1.0,0.0,Medium,-1.0992012444764991,-40.0,-40.0,-0.1290841534115375
57,559002fefdf99b3f7aada38f,27.0,8.0,left,1.0071,,50.0,,0.0,1.0,High,,,-40.0,0.007074913671961985
58,559002fefdf99b3f7aada38f,28.0,1.0,right,0.9422,,50.0,,1.0,0.0,Low,,,-40.0,-0.059537712716196275
59,559002fefdf99b3f7aada38f,29.0,6.0,left,2.8288,4.1734,50.0,15.0,0.0,1.0,Medium,-0.33586704692337466,-35.0,-35.0,1.0398525934611873
0,5590a34cfdf99b729d4f69dc,0.0,5.0,left,3.1955,,30.0,,0.0,1.0,Medium,,,,1.1617435701081995
1,5590a34cfdf99b729d4f69dc,1.0,8.0,left,1.9595,12.0432,50.0,35.0,0.0,1.0,High,0.669733374499448,-15.0,-15.0,0.6726893386575491
2,5590a34cfdf99b729d4f69dc,2.0,2.0,right,2.9147,,23.0,,1.0,0.0,Low,,,-15.0,1.0697668985542732
3,5590a34cfdf99b729d4f69dc,3.0,4.0,right,2.0287,,43.0,,1.0,0.0,Medium,,,-15.0,0.7073951938251468
4,5590a34cfdf99b729d4f69dc,4.0,1.0,right,1.2134,9.2273,50.0,15.0,1.0,0.0,Low,-1.946591046065992,-35.0,-35.0,0.19342633652606045
5,5590a34cfdf99b729d4f69dc,5.0,9.0,left,2.4609,,50.0,,0.0,1.0,High,,,-35.0,0.9005271366946769
6,5590a34cfdf99b729d4f69dc,6.0,2.0,right,1.7516,,50.0,,1.0,0.0,Low,,,-35.0,0.5605296559451063
7,5590a34cfdf99b729d4f69dc,7.0,5.0,left,2.3436,,50.0,,0.0,1.0,Medium,,,-35.0,0.8516882086884965
8,5590a34cfdf99b729d4f69dc,8.0,8.0,left,3.623,7.0184,50.0,24.9520355,0.0,1.0,High,-0.6447033704167825,-25.0479645,-25.0479645,1.2873024119129401
9,5590a34cfdf99b729d4f69dc,9.0,4.0,right,3.0838,,50.0,,1.0,0.0,Medium,,,-25.0479645,1.1261626027551153
10,5590a34cfdf99b729d4f69dc,10.0,1.0,right,2.0549,,23.0,,1.0,0.0,Low,,,-25.0479645,0.7202271849636874
11,5590a34cfdf99b729d4f69dc,11.0,7.0,left,1.9267,6.2342,12.0,19.9520355,0.0,1.0,High,-1.2987844755581426,7.952035500000001,7.952035500000001,0.6558086949045775
12,5590a34cfdf99b729d4f69dc,12.0,2.0,right,1.7981,,50.0,,1.0,0.0,Low,,,7.952035500000001,0.586730551855455
13,5590a34cfdf99b729d4f69dc,13.0,3.0,right,3.9079,,50.0,,1.0,0.0,Low,,,7.952035500000001,1.3630001453168084
14,5590a34cfdf99b729d4f69dc,14.0,4.0,right,1.0769,,43.0,,1.0,0.0,Medium,,,7.952035500000001,0.07408654335269817
15,5590a34cfdf99b729d4f69dc,15.0,6.0,left,1.7841,6.93,26.0,16.0,0.0,1.0,Medium,-1.8157748250377201,-10.0,-10.0,0.5789140863985206
16,5590a34cfdf99b729d4f69dc,16.0,6.0,left,2.6837,,50.0,,0.0,1.0,Medium,,,-10.0,0.9871964393898861
17,5590a34cfdf99b729d4f69dc,17.0,5.0,left,1.0779,,50.0,,0.0,1.0,Medium,,,-10.0,0.07501470380544575
18,5590a34cfdf99b729d4f69dc,18.0,3.0,right,1.7645,,42.0,,1.0,0.0,Low,,,-10.0,0.5678673641331877
19,5590a34cfdf99b729d4f69dc,19.0,3.0,right,1.0725,4.0897,50.0,15.0,1.0,0.0,Low,-1.946591046065992,-35.0,-35.0,0.069992371820035
20,5590a34cfdf99b729d4f69dc,20.0,9.0,left,2.0157,,31.0,,0.0,1.0,High,,,-35.0,0.7009665296120768
21,5590a34cfdf99b729d4f69dc,21.0,4.0,left,2.0282,2.6247,34.0,34.0,0.0,1.0,Medium,0.5389171534711761,0.0,0.0,0.7071487001957589
22,5590a34cfdf99b729d4f69dc,22.0,5.0,left,1.6275,,50.0,,0.0,1.0,Medium,,,0.0,0.48704509510058724
23,5590a34cfdf99b729d4f69dc,23.0,8.0,left,1.0649,,50.0,,0.0,1.0,High,,,0.0,0.062880898039201
24,5590a34cfdf99b729d4f69dc,24.0,7.0,left,1.1287,5.0466,50.0,30.0,0.0,1.0,High,0.01565226935808801,-20.0,-20.0,0.12106652797944362
25,5590a34cfdf99b729d4f69dc,25.0,6.0,left,1.7522,,50.0,,0.0,1.0,Medium,,,-20.0,0.5608721412501264
26,5590a34cfdf99b729d4f69dc,26.0,7.0,left,0.9841,,20.0,,0.0,1.0,High,,,-20.0,-0.01602776107719725
27,5590a34cfdf99b729d4f69dc,27.0,6.0,left,1.1995,5.9484,35.0,34.70291241,0.0,1.0,Medium,0.6308694986612519,-0.29708758999999674,-0.29708758999999674,0.18190480329761222
28,5590a34cfdf99b729d4f69dc,28.0,5.0,left,1.7283,,26.0,,0.0,1.0,Medium,,,-0.29708758999999674,0.5471382664243101
29,5590a34cfdf99b729d4f69dc,29.0,5.0,left,2.3974,3.8044,47.0,32.0,0.0,1.0,Medium,0.277284711414632,-15.0,-15.0,0.8743848167908624
30,5590a34cfdf99b729d4f69dc,0.0,5.0,left,1.214,,50.0,,0.0,1.0,Medium,,,-15.0,0.1939206926373065
31,5590a34cfdf99b729d4f69dc,1.0,8.0,left,0.969,2.4759,39.0,39.0,0.0,1.0,High,1.192998258612536,0.0,0.0,-0.03149066709137085
32,5590a34cfdf99b729d4f69dc,2.0,5.0,left,1.2642,,50.0,,0.0,1.0,Medium,,,0.0,0.23443951105606128
33,5590a34cfdf99b729d4f69dc,3.0,1.0,right,1.6566,,50.0,,1.0,0.0,Low,,,0.0,0.5047673091820267
34,5590a34cfdf99b729d4f69dc,4.0,5.0,left,1.5978,2.9363,50.0,35.0,0.0,1.0,Medium,0.669733374499448,-15.0,-15.0,0.46862768306580455
35,5590a34cfdf99b729d4f69dc,5.0,6.0,left,1.9118,,40.0,,0.0,1.0,Medium,,,-15.0,0.6480452066475251
36,5590a34cfdf99b729d4f69dc,6.0,5.0,left,1.6674,,38.0,,0.0,1.0,Medium,,,-15.0,0.511265526994376
37,5590a34cfdf99b729d4f69dc,7.0,9.0,left,0.8567,,50.0,,0.0,1.0,High,,,-15.0,-0.15466748001213876
38,5590a34cfdf99b729d4f69dc,8.0,2.0,right,2.2466,3.1988,50.0,35.0,1.0,0.0,Low,0.669733374499448,-15.0,-15.0,0.8094179622253318
39,5590a34cfdf99b729d4f69dc,9.0,7.0,left,1.4284,,34.0,,0.0,1.0,High,,,-15.0,0.35655493673815625
40,5590a34cfdf99b729d4f69dc,10.0,2.0,right,1.504,,14.0,,1.0,0.0,Low,,,-15.0,0.4081282255276481
41,5590a34cfdf99b729d4f69dc,11.0,5.0,left,0.8478,3.797,34.0,39.0,0.0,1.0,Medium,1.192998258612536,5.0,5.0,-0.1651105200636003
42,5590a34cfdf99b729d4f69dc,12.0,9.0,left,1.8387,,20.0,,0.0,1.0,High,,,5.0,0.6090588001776587
43,5590a34cfdf99b729d4f69dc,13.0,8.0,left,1.9842,,33.0,,0.0,1.0,High,,,5.0,0.6852158102336651
44,5590a34cfdf99b729d4f69dc,14.0,6.0,left,1.9979,,50.0,,0.0,1.0,Medium,,,5.0,0.6920966289237662
45,5590a34cfdf99b729d4f69dc,15.0,6.0,left,2.165,2.7396,50.0,35.0,0.0,1.0,Medium,0.669733374499448,-15.0,-15.0,0.7724203614544531
46,5590a34cfdf99b729d4f69dc,16.0,5.0,left,1.1646,,44.0,,0.0,1.0,Medium,,,-15.0,0.1523776804208826
47,5590a34cfdf99b729d4f69dc,17.0,2.0,right,3.1191,,7.0,,1.0,0.0,Low,,,-15.0,1.1375444986698973
48,5590a34cfdf99b729d4f69dc,18.0,8.0,left,1.325,,50.0,,0.0,1.0,High,,,-15.0,0.2814124594381855
49,5590a34cfdf99b729d4f69dc,19.0,3.0,right,2.2122,3.3082,50.0,35.0,1.0,0.0,Low,0.669733374499448,-15.0,-15.0,0.7939874954860169
50,5590a34cfdf99b729d4f69dc,20.0,4.0,right,3.2269,,39.0,,1.0,0.0,Medium,,,-15.0,1.171521924055428
51,5590a34cfdf99b729d4f69dc,21.0,3.0,right,1.0684,3.3333,50.0,30.0,1.0,0.0,Low,0.01565226935808801,-20.0,-20.0,0.06616220225366877
52,5590a34cfdf99b729d4f69dc,22.0,7.0,left,1.6895,,42.0,,0.0,1.0,High,,,-20.0,0.5244326271722076
53,5590a34cfdf99b729d4f69dc,23.0,4.0,left,1.7112,,15.0,,0.0,1.0,Medium,,,-20.0,0.5371948787860589
54,5590a34cfdf99b729d4f69dc,24.0,7.0,left,0.6902,2.9654,8.0,33.0,0.0,1.0,High,0.408100932442904,25.0,25.0,-0.37077386831823395
55,5590a34cfdf99b729d4f69dc,25.0,3.0,right,1.2431,,11.0,,1.0,0.0,Low,,,25.0,0.21760825981553278
56,5590a34cfdf99b729d4f69dc,26.0,6.0,left,2.0837,,26.0,,0.0,1.0,Medium,,,25.0,0.7341451595940174
57,5590a34cfdf99b729d4f69dc,27.0,4.0,right,4.6707,4.3176,30.0,30.0,1.0,0.0,Medium,0.01565226935808801,0.0,0.0,1.5413089533816016
58,5590a34cfdf99b729d4f69dc,28.0,1.0,right,1.9731,,8.0,,1.0,0.0,Low,,,0.0,0.679605909993278
59,5590a34cfdf99b729d4f69dc,29.0,4.0,right,1.5704,3.1351,50.0,30.0,1.0,0.0,Medium,0.01565226935808801,-20.0,-20.0,0.4513303639801143
0,5596a991fdf99b2d1e834690,0.0,5.0,left,1.1629,,50.0,,0.0,1.0,Medium,,,,0.1509168853168605
1,5596a991fdf99b2d1e834690,1.0,3.0,right,2.1091,,12.0,,1.0,0.0,Low,,,,0.7462613162094319
2,5596a991fdf99b2d1e834690,2.0,3.0,right,0.995,1.6749,40.0,35.0,1.0,0.0,Low,-2.9415791824532955,-5.0,-5.0,-0.005012541823544286
3,5596a991fdf99b2d1e834690,3.0,9.0,left,0.8429,,50.0,,0.0,1.0,High,,,-5.0,-0.1709069519787006
4,5596a991fdf99b2d1e834690,4.0,6.0,left,1.712,1.7087,47.0,47.0,0.0,1.0,Medium,1.1157714140340074,0.0,0.0,0.5376622777195503
5,5596a991fdf99b2d1e834690,5.0,1.0,left,0.9147,,50.0,,0.0,1.0,Low,,,0.0,-0.08915913631981831
6,5596a991fdf99b2d1e834690,6.0,4.0,left,0.9986,,18.0,,0.0,1.0,Medium,,,0.0,-0.0014009809156281003
7,5596a991fdf99b2d1e834690,7.0,7.0,left,0.6823,1.8426,50.0,45.0,0.0,1.0,High,0.43954631461945687,-5.0,-5.0,-0.3822858351607591
8,5596a991fdf99b2d1e834690,8.0,6.0,left,3.2817,,50.0,,0.0,1.0,Medium,,,-5.0,1.1883615808117176
9,5596a991fdf99b2d1e834690,9.0,9.0,left,0.6862,,50.0,,0.0,1.0,High,,,-5.0,-0.37658614855778766
10,5596a991fdf99b2d1e834690,10.0,5.0,left,0.8546,1.7935,44.0,44.0,0.0,1.0,Medium,0.10143376491218162,0.0,0.0,-0.15712175577221243
11,5596a991fdf99b2d1e834690,11.0,7.0,left,1.002,,11.0,,0.0,1.0,High,,,0.0,0.001998002662673058
12,5596a991fdf99b2d1e834690,12.0,4.0,left,1.6352,1.8257,37.0,42.0,0.0,1.0,Medium,-0.5747913345023689,5.0,5.0,0.49176512102724823
13,5596a991fdf99b2d1e834690,13.0,3.0,right,1.8362,,7.0,,1.0,0.0,Low,,,5.0,0.6076982187274627
14,5596a991fdf99b2d1e834690,14.0,2.0,right,0.899,,50.0,,1.0,0.0,Low,,,5.0,-0.10647224451051676
15,5596a991fdf99b2d1e834690,15.0,1.0,right,1.5883,,50.0,,1.0,0.0,Low,,,5.0,0.4626642618589723
16,5596a991fdf99b2d1e834690,16.0,6.0,left,0.7037,1.8467,50.0,45.0,0.0,1.0,Medium,0.43954631461945687,-5.0,-5.0,-0.35140315000963385
17,5596a991fdf99b2d1e834690,17.0,4.0,left,1.6867,,48.0,,0.0,1.0,Medium,,,-5.0,0.5227739572818318
18,5596a991fdf99b2d1e834690,18.0,8.0,left,0.5008,,43.0,,0.0,1.0,High,,,-5.0,-0.6915484591962482
19,5596a991fdf99b2d1e834690,19.0,8.0,left,0.4801,1.5946,50.0,50.0,0.0,1.0,High,2.130109063155833,0.0,0.0,-0.7337608634452423
20,5596a991fdf99b2d1e834690,20.0,5.0,left,1.1205,,10.0,,0.0,1.0,Medium,,,0.0,0.11377501425884468
21,5596a991fdf99b2d1e834690,21.0,7.0,left,0.6886,,50.0,,0.0,1.0,High,,,0.0,-0.37309472807771366
22,5596a991fdf99b2d1e834690,22.0,6.0,left,1.1877,,37.0,,0.0,1.0,Medium,,,0.0,0.17201866379805755
23,5596a991fdf99b2d1e834690,23.0,2.0,right,1.3389,3.1614,23.0,43.0,1.0,0.0,Low,-0.23667878479509363,20.0,20.0,0.29184838132119684
24,5596a991fdf99b2d1e834690,24.0,5.0,left,1.2547,,50.0,,0.0,1.0,Medium,,,20.0,0.22689650018351692
25,5596a991fdf99b2d1e834690,25.0,8.0,left,0.8541,1.7624,50.0,45.0,0.0,1.0,High,0.43954631461945687,-5.0,-5.0,-0.15770699603003552
26,5596a991fdf99b2d1e834690,26.0,5.0,left,0.593,,34.0,,0.0,1.0,Medium,,,-5.0,-0.5225608799844117
27,5596a991fdf99b2d1e834690,27.0,2.0,right,0.7526,,50.0,,1.0,0.0,Low,,,-5.0,-0.2842214008228001
28,5596a991fdf99b2d1e834690,28.0,4.0,right,1.157,,28.0,,1.0,0.0,Medium,,,-5.0,0.14583044821153954
29,5596a991fdf99b2d1e834690,29.0,5.0,left,0.638,1.059,50.0,40.0,0.0,1.0,Medium,-1.2510164339169194,-10.0,-10.0,-0.44941699563734716
30,5596a991fdf99b2d1e834690,0.0,5.0,left,0.8967,,50.0,,0.0,1.0,Medium,,,-10.0,-0.10903392102413513
31,5596a991fdf99b2d1e834690,1.0,4.0,left,1.0352,,22.0,,0.0,1.0,Medium,,,-10.0,0.034594644764498965
32,5596a991fdf99b2d1e834690,2.0,3.0,right,1.8693,2.082,43.0,43.0,1.0,0.0,Low,-0.23667878479509363,0.0,0.0,0.625564029236149
33,5596a991fdf99b2d1e834690,3.0,8.0,left,0.8993,,41.0,,0.0,1.0,High,,,0.0,-0.10613859606166728
34,5596a991fdf99b2d1e834690,4.0,5.0,left,0.5392,2.1912,8.0,43.0,0.0,1.0,Medium,-0.23667878479509363,35.0,35.0,-0.6176687193840398
35,5596a991fdf99b2d1e834690,5.0,4.0,left,1.1325,,50.0,,0.0,1.0,Medium,,,35.0,0.12442757837505208
36,5596a991fdf99b2d1e834690,6.0,5.0,left,0.7038,,43.0,,0.0,1.0,Medium,,,35.0,-0.3512610540946523
37,5596a991fdf99b2d1e834690,7.0,5.0,left,0.5602,2.4446,34.0,44.0,0.0,1.0,Medium,0.10143376491218162,10.0,10.0,-0.5794614161561289
38,5596a991fdf99b2d1e834690,8.0,9.0,left,1.2719,,50.0,,0.0,1.0,High,,,10.0,0.24051184547530177
39,5596a991fdf99b2d1e834690,9.0,4.0,left,0.5853,,50.0,,0.0,1.0,Medium,,,10.0,-0.5356307426849618
40,5596a991fdf99b2d1e834690,10.0,2.0,right,0.6528,1.8655,17.0,42.0,1.0,0.0,Low,-0.5747913345023689,25.0,25.0,-0.4264844753322397
41,5596a991fdf99b2d1e834690,11.0,4.0,left,1.1677,,50.0,,0.0,1.0,Medium,,,25.0,0.1550360020995321
42,5596a991fdf99b2d1e834690,12.0,8.0,left,1.0196,3.6085,10.0,45.0,0.0,1.0,High,0.43954631461945687,35.0,35.0,0.019410393519823387
43,5596a991fdf99b2d1e834690,13.0,6.0,left,0.5869,,50.0,,0.0,1.0,Medium,,,35.0,-0.5329008314178483
44,5596a991fdf99b2d1e834690,14.0,2.0,right,1.2838,,8.0,,1.0,0.0,Low,,,35.0,0.24982442989554077
45,5596a991fdf99b2d1e834690,15.0,3.0,right,0.772,,27.0,,1.0,0.0,Low,,,35.0,-0.25877072895736086
46,5596a991fdf99b2d1e834690,16.0,7.0,left,0.7203,1.8825,32.0,42.0,0.0,1.0,High,-0.5747913345023689,10.0,10.0,-0.32808748708681973
47,5596a991fdf99b2d1e834690,17.0,6.0,left,1.7204,,50.0,,0.0,1.0,Medium,,,10.0,0.5425568219274441
48,5596a991fdf99b2d1e834690,18.0,9.0,left,0.7366,,50.0,,0.0,1.0,High,,,10.0,-0.3057102749711721
49,5596a991fdf99b2d1e834690,19.0,1.0,right,1.0052,1.9115,18.0,43.0,1.0,0.0,Low,-0.23667878479509363,25.0,25.0,0.005186526687300154
50,5596a991fdf99b2d1e834690,20.0,3.0,right,1.2859,,25.0,,1.0,0.0,Low,,,25.0,0.25145886229425624
51,5596a991fdf99b2d1e834690,21.0,7.0,left,0.8015,,50.0,,0.0,1.0,High,,,25.0,-0.22127030693252941
52,5596a991fdf99b2d1e834690,22.0,7.0,left,1.116,,48.0,,0.0,1.0,High,,,25.0,0.10975086395911929
53,5596a991fdf99b2d1e834690,23.0,5.0,left,0.9031,1.2755,50.0,45.0,0.0,1.0,Medium,0.43954631461945687,-5.0,-5.0,-0.10192198972538395
54,5596a991fdf99b2d1e834690,24.0,2.0,right,0.9191,,50.0,,1.0,0.0,Low,,,-5.0,-0.08436034861807322
55,5596a991fdf99b2d1e834690,25.0,5.0,left,1.1548,3.4932,50.0,45.0,0.0,1.0,Medium,0.43954631461945687,-5.0,-5.0,0.14392716880664302
56,5596a991fdf99b2d1e834690,26.0,8.0,left,1.1209,,50.0,,0.0,1.0,High,,,-5.0,0.11413193404491263
57,5596a991fdf99b2d1e834690,27.0,6.0,left,1.2194,,50.0,,0.0,1.0,Medium,,,-5.0,0.1983589344915787
58,5596a991fdf99b2d1e834690,28.0,1.0,right,0.9199,,7.0,,1.0,0.0,Low,,,-5.0,-0.08349031049902542
59,5596a991fdf99b2d1e834690,29.0,6.0,left,0.7158,1.8006,41.0,46.0,0.0,1.0,Medium,0.7776588643267321,5.0,5.0,-0.3343544806502116
0,55a75835fdf99b26395fae40,0.0,5.0,right,1.6783,,50.0,,1.0,0.0,Medium,,,,0.5177813763319964
1,55a75835fdf99b26395fae40,1.0,6.0,left,1.1995,,50.0,,0.0,1.0,Medium,,,,0.18190480329761222
2,55a75835fdf99b26395fae40,2.0,2.0,right,1.2609,3.4559,50.0,15.0,1.0,0.0,Low,-1.5576493080769,-35.0,-35.0,0.23182575169704359
3,55a75835fdf99b26395fae40,3.0,1.0,right,1.0116,,50.0,,1.0,0.0,Low,,,-35.0,0.011533235813673085
4,55a75835fdf99b26395fae40,4.0,2.0,right,1.0414,3.1196,50.0,10.0,1.0,0.0,Low,-2.268904699892836,-40.0,-40.0,0.04056596174666175
5,55a75835fdf99b26395fae40,5.0,4.0,right,1.9114,,50.0,,1.0,0.0,Medium,,,-40.0,0.6478359578499422
6,55a75835fdf99b26395fae40,6.0,3.0,right,1.4125,,10.0,,1.0,0.0,Low,,,-40.0,0.345361184038459
7,55a75835fdf99b26395fae40,7.0,8.0,left,1.3807,2.3033,19.0,24.0,0.0,1.0,High,-0.277389602808215,5.0,5.0,0.32259061693996965
8,55a75835fdf99b26395fae40,8.0,3.0,right,1.8362,,15.0,,1.0,0.0,Low,,,5.0,0.6076982187274627
9,55a75835fdf99b26395fae40,9.0,5.0,left,1.0829,,50.0,,0.0,1.0,Medium,,,5.0,0.07964262765219667
10,55a75835fdf99b26395fae40,10.0,4.0,right,0.875,2.189,50.0,25.0,1.0,0.0,Medium,-0.13513852444502777,-25.0,-25.0,-0.13353139262452263
11,55a75835fdf99b26395fae40,11.0,6.0,left,1.1135,,34.0,,0.0,1.0,Medium,,,-25.0,0.1075082077152852
12,55a75835fdf99b26395fae40,12.0,5.0,left,0.7822,,50.0,,0.0,1.0,Medium,,,-25.0,-0.2456448166607233
13,55a75835fdf99b26395fae40,13.0,9.0,left,1.0137,,35.0,,0.0,1.0,High,,,-25.0,0.013607003406216947
14,55a75835fdf99b26395fae40,14.0,7.0,left,1.1579,1.8574,23.0,28.0,0.0,1.0,High,0.2916147106445339,5.0,5.0,0.14660801963609024
15,55a75835fdf99b26395fae40,15.0,7.0,left,0.7047,,30.0,,0.0,1.0,High,,,5.0,-0.3499830986491603
16,55a75835fdf99b26395fae40,16.0,5.0,left,1.0137,,50.0,,0.0,1.0,Medium,,,5.0,0.013607003406216947
17,55a75835fdf99b26395fae40,17.0,7.0,left,0.7695,2.9492,8.0,28.0,0.0,1.0,High,0.2916147106445339,20.0,20.0,-0.2620143257032032
18,55a75835fdf99b26395fae40,18.0,9.0,left,1.0476,,50.0,,0.0,1.0,High,,,20.0,0.04650183365141986
19,55a75835fdf99b26395fae40,19.0,8.0,left,0.7589,2.0046,34.0,39.0,0.0,1.0,High,1.8563765726395935,5.0,5.0,-0.2758852625722699
20,55a75835fdf99b26395fae40,20.0,8.0,left,0.6878,,8.0,,0.0,1.0,High,,,5.0,-0.37425718098397126
21,55a75835fdf99b26395fae40,21.0,3.0,right,0.7766,,13.0,,1.0,0.0,Low,,,5.0,-0.25282986168457017
22,55a75835fdf99b26395fae40,22.0,6.0,left,0.7852,,47.0,,0.0,1.0,Medium,,,5.0,-0.24181681657983103
23,55a75835fdf99b26395fae40,23.0,4.0,right,0.9282,1.7871,41.0,36.0,1.0,0.0,Medium,1.4296233375500318,-5.0,-5.0,-0.07450805217506158
24,55a75835fdf99b26395fae40,24.0,1.0,right,0.8351,,50.0,,1.0,0.0,Low,,,-5.0,-0.18020380082295337
25,55a75835fdf99b26395fae40,25.0,5.0,left,1.4424,,18.0,,0.0,1.0,Medium,,,-5.0,0.36630839290697037
26,55a75835fdf99b26395fae40,26.0,2.0,right,0.8097,,50.0,,1.0,0.0,Low,,,-5.0,-0.21109147029006842
27,55a75835fdf99b26395fae40,27.0,5.0,left,0.5712,2.0874,50.0,25.0,0.0,1.0,Medium,-0.13513852444502777,-25.0,-25.0,-0.5600158679567624
28,55a75835fdf99b26395fae40,28.0,4.0,right,0.8192,,12.0,,1.0,0.0,Medium,,,-25.0,-0.19942702469689366
29,55a75835fdf99b26395fae40,29.0,6.0,left,0.6625,1.4629,37.0,27.0,0.0,1.0,Medium,0.1493636322813467,-10.0,-10.0,-0.4117347211217598
30,55a75835fdf99b26395fae40,0.0,5.0,left,0.903,,50.0,,0.0,1.0,Medium,,,-10.0,-0.10203272556515161
31,55a75835fdf99b26395fae40,1.0,8.0,left,0.79,,50.0,,0.0,1.0,High,,,-10.0,-0.23572233352106983
32,55a75835fdf99b26395fae40,2.0,1.0,right,0.5371,2.4461,50.0,25.0,1.0,0.0,Low,-0.13513852444502777,-25.0,-25.0,-0.6215709820707234
33,55a75835fdf99b26395fae40,3.0,4.0,right,1.0354,,29.0,,1.0,0.0,Medium,,,-25.0,0.034787825485664024
34,55a75835fdf99b26395fae40,4.0,9.0,left,0.7659,1.5082,31.0,31.0,0.0,1.0,High,0.7183679457340957,0.0,0.0,-0.2667036660665892
35,55a75835fdf99b26395fae40,5.0,7.0,left,0.7828,,13.0,,0.0,1.0,High,,,0.0,-0.24487804346021583
36,55a75835fdf99b26395fae40,6.0,3.0,right,0.6968,,40.0,,1.0,0.0,Low,,,0.0,-0.36125685344384406
37,55a75835fdf99b26395fae40,7.0,9.0,left,0.5695,2.505,29.0,34.0,0.0,1.0,High,1.1451211808236574,5.0,5.0,-0.5629964960949002
38,55a75835fdf99b26395fae40,8.0,2.0,right,0.6365,,14.0,,1.0,0.0,Low,,,5.0,-0.4517708609846759
39,55a75835fdf99b26395fae40,9.0,6.0,left,0.8492,,40.0,,0.0,1.0,Medium,,,5.0,-0.16346054915303607
40,55a75835fdf99b26395fae40,10.0,7.0,left,0.5349,1.6867,39.0,29.0,0.0,1.0,High,0.43386578900772116,-10.0,-10.0,-0.6256754654449326
41,55a75835fdf99b26395fae40,11.0,5.0,left,0.8532,,11.0,,0.0,1.0,Medium,,,-10.0,-0.1587612923849416
42,55a75835fdf99b26395fae40,12.0,5.0,left,0.6139,,50.0,,0.0,1.0,Medium,,,-10.0,-0.4879232305486864
43,55a75835fdf99b26395fae40,13.0,6.0,left,0.8461,,44.0,,0.0,1.0,Medium,,,-10.0,-0.1671177230516819
44,55a75835fdf99b26395fae40,14.0,8.0,left,0.7906,1.9575,50.0,25.0,0.0,1.0,High,-0.13513852444502777,-25.0,-25.0,-0.23496312811955194
45,55a75835fdf99b26395fae40,15.0,5.0,left,0.7356,,8.0,,0.0,1.0,Medium,,,-25.0,-0.307068786251971
46,55a75835fdf99b26395fae40,16.0,6.0,left,0.6409,,20.0,,0.0,1.0,Medium,,,-25.0,-0.44488184047195584
47,55a75835fdf99b26395fae40,17.0,7.0,left,0.6963,6.2685,50.0,30.0,0.0,1.0,High,0.5761168673709084,-20.0,-20.0,-0.36197467703363595
48,55a75835fdf99b26395fae40,18.0,5.0,left,1.6868,,44.0,,0.0,1.0,Medium,,,-20.0,0.5228332428902678
49,55a75835fdf99b26395fae40,19.0,6.0,left,0.8264,1.9512,18.0,28.0,0.0,1.0,Medium,0.2916147106445339,10.0,10.0,-0.19067636117670822
50,55a75835fdf99b26395fae40,20.0,4.0,right,0.8252,,26.0,,1.0,0.0,Medium,,,10.0,-0.19212949778504024
51,55a75835fdf99b26395fae40,21.0,4.0,right,0.7851,,47.0,,1.0,0.0,Medium,,,10.0,-0.24194418077792715
52,55a75835fdf99b26395fae40,22.0,5.0,left,0.7664,,15.0,,0.0,1.0,Medium,,,10.0,-0.2660510523254863
53,55a75835fdf99b26395fae40,23.0,2.0,right,0.5872,2.643,50.0,20.0,1.0,0.0,Low,-0.8463939162609639,-30.0,-30.0,-0.5323898016818311
54,55a75835fdf99b26395fae40,24.0,3.0,right,0.6508,,50.0,,1.0,0.0,Low,,,-30.0,-0.42955290363725424
55,55a75835fdf99b26395fae40,25.0,4.0,left,0.6418,,50.0,,0.0,1.0,Medium,,,-30.0,-0.4434785503063805
56,55a75835fdf99b26395fae40,26.0,3.0,right,0.69,,50.0,,1.0,0.0,Low,,,-30.0,-0.37106368139083207
57,55a75835fdf99b26395fae40,27.0,1.0,right,0.7707,2.5394,50.0,15.0,1.0,0.0,Low,-1.5576493080769,-35.0,-35.0,-0.2604560861981894
58,55a75835fdf99b26395fae40,28.0,8.0,left,0.8683,,32.0,,0.0,1.0,High,,,-35.0,-0.14121800191553763
59,55a75835fdf99b26395fae40,29.0,2.0,right,0.6186,2.5966,25.0,25.0,1.0,0.0,Low,-0.13513852444502777,0.0,0.0,-0.48029641873116774
0,55b237e6fdf99b19ea79d2f7,0.0,5.0,left,2.6339,,48.0,,0.0,1.0,Medium,,,,0.9684656375282641
1,55b237e6fdf99b19ea79d2f7,1.0,5.0,left,1.0278,2.6362,50.0,25.0,0.0,1.0,Medium,0.39569311930522166,-25.0,-25.0,0.027420595575992218
2,55b237e6fdf99b19ea79d2f7,2.0,6.0,left,1.0453,,50.0,,0.0,1.0,Medium,,,-25.0,0.044303925556524314
3,55b237e6fdf99b19ea79d2f7,3.0,5.0,left,0.8552,,50.0,,0.0,1.0,Medium,,,-25.0,-0.15641991927130164
4,55b237e6fdf99b19ea79d2f7,4.0,8.0,left,0.9594,,50.0,,0.0,1.0,High,,,-25.0,-0.041447189914173475
5,55b237e6fdf99b19ea79d2f7,5.0,6.0,left,0.6263,2.8334,49.0,24.0,0.0,1.0,Medium,0.2739413902882304,-25.0,-25.0,-0.46792578945076996
6,55b237e6fdf99b19ea79d2f7,6.0,7.0,left,1.0086,,50.0,,0.0,1.0,High,,,-25.0,0.008563230660487814
7,55b237e6fdf99b19ea79d2f7,7.0,4.0,right,1.326,3.0345,50.0,20.0,1.0,0.0,Medium,-0.21306552577973475,-30.0,-30.0,0.2821668917636708
8,55b237e6fdf99b19ea79d2f7,8.0,6.0,left,0.9266,,50.0,,0.0,1.0,Medium,,,-30.0,-0.07623330599958908
9,55b237e6fdf99b19ea79d2f7,9.0,4.0,right,1.1586,,50.0,,1.0,0.0,Medium,,,-30.0,0.14721237968038678
10,55b237e6fdf99b19ea79d2f7,10.0,2.0,right,1.4062,3.2504,50.0,10.0,1.0,0.0,Low,-1.4305828159496476,-40.0,-40.0,0.3408910307829238
11,55b237e6fdf99b19ea79d2f7,11.0,9.0,left,1.2589,,30.0,,0.0,1.0,High,,,-40.0,0.23023832379007644
12,55b237e6fdf99b19ea79d2f7,12.0,1.0,right,1.0101,,14.0,,1.0,0.0,Low,,,-40.0,0.010049335853001438
13,55b237e6fdf99b19ea79d2f7,13.0,7.0,left,1.1017,,50.0,,0.0,1.0,High,,,-40.0,0.0968544413638821
14,55b237e6fdf99b19ea79d2f7,14.0,4.0,right,0.9435,2.0877,27.0,22.0,1.0,0.0,Medium,0.03043793225424782,-5.0,-5.0,-0.05815891417353214
15,55b237e6fdf99b19ea79d2f7,15.0,2.0,right,1.0098,,28.0,,1.0,0.0,Low,,,-5.0,0.009752291442678302
16,55b237e6fdf99b19ea79d2f7,16.0,8.0,left,0.8235,,50.0,,0.0,1.0,High,,,-5.0,-0.19419172936444204
17,55b237e6fdf99b19ea79d2f7,17.0,8.0,left,0.9121,,25.0,,0.0,1.0,High,,,-5.0,-0.09200564579602429
18,55b237e6fdf99b19ea79d2f7,18.0,6.0,left,1.0175,2.3392,23.0,23.0,0.0,1.0,Medium,0.15218966127123912,0.0,0.0,0.017348638334613073
19,55b237e6fdf99b19ea79d2f7,19.0,3.0,right,0.8444,,32.0,,1.0,0.0,Low,,,0.0,-0.16912896300797145
20,55b237e6fdf99b19ea79d2f7,20.0,5.0,left,1.2731,,50.0,,0.0,1.0,Medium,,,0.0,0.24145487108546257
21,55b237e6fdf99b19ea79d2f7,21.0,4.0,right,0.7726,3.2007,50.0,15.0,1.0,0.0,Medium,-0.8218241708646912,-35.0,-35.0,-0.2579938287499562
22,55b237e6fdf99b19ea79d2f7,22.0,5.0,left,0.7287,,45.0,,0.0,1.0,Medium,,,-35.0,-0.3164931543059005
23,55b237e6fdf99b19ea79d2f7,23.0,9.0,left,0.7263,,15.0,,0.0,1.0,High,,,-35.0,-0.31979212637001464
24,55b237e6fdf99b19ea79d2f7,24.0,3.0,right,0.8971,2.7149,36.0,16.0,1.0,0.0,Low,-0.7000724418476999,-20.0,-20.0,-0.10858794041689919
25,55b237e6fdf99b19ea79d2f7,25.0,3.0,right,0.7137,,42.0,,1.0,0.0,Low,,,-20.0,-0.3372925730051154
26,55b237e6fdf99b19ea79d2f7,26.0,7.0,left,0.9177,,50.0,,0.0,1.0,High,,,-20.0,-0.08588473915716963
27,55b237e6fdf99b19ea79d2f7,27.0,1.0,right,0.8089,2.953,50.0,10.0,1.0,0.0,Low,-1.4305828159496476,-40.0,-40.0,-0.2120799789582302
28,55b237e6fdf99b19ea79d2f7,28.0,2.0,right,0.8503,,50.0,,1.0,0.0,Low,,,-40.0,-0.1621660505903903
29,55b237e6fdf99b19ea79d2f7,29.0,5.0,left,0.7677,2.288,50.0,25.0,0.0,1.0,Medium,0.39569311930522166,-25.0,-25.0,-0.26435624714828415
30,55b237e6fdf99b19ea79d2f7,0.0,5.0,left,0.8796,,19.0,,0.0,1.0,Medium,,,-25.0,-0.1282880203015309
31,55b237e6fdf99b19ea79d2f7,1.0,5.0,left,0.635,2.4893,50.0,25.0,0.0,1.0,Medium,0.39569311930522166,-25.0,-25.0,-0.4541302800894454
32,55b237e6fdf99b19ea79d2f7,2.0,7.0,left,0.6758,,24.0,,0.0,1.0,High,,,-25.0,-0.39185810470194754
33,55b237e6fdf99b19ea79d2f7,3.0,2.0,right,0.8148,,50.0,,1.0,0.0,Low,,,-25.0,-0.20481259462948634
34,55b237e6fdf99b19ea79d2f7,4.0,6.0,left,0.7085,,50.0,,0.0,1.0,Medium,,,-25.0,-0.3446052198514019
35,55b237e6fdf99b19ea79d2f7,5.0,2.0,right,0.6619,2.5884,42.0,17.0,1.0,0.0,Low,-0.5783207128307086,-25.0,-25.0,-0.4126407918572599
36,55b237e6fdf99b19ea79d2f7,6.0,4.0,right,1.2412,,28.0,,1.0,0.0,Medium,,,-25.0,0.21607865359208814
37,55b237e6fdf99b19ea79d2f7,7.0,9.0,left,1.1793,2.2634,50.0,40.0,0.0,1.0,High,2.221969054560091,-10.0,-10.0,0.1649210421137873
38,55b237e6fdf99b19ea79d2f7,8.0,8.0,left,0.7264,,46.0,,0.0,1.0,High,,,-10.0,-0.31965445169505347
39,55b237e6fdf99b19ea79d2f7,9.0,6.0,left,0.7613,,50.0,,0.0,1.0,Medium,,,-10.0,-0.27272778066997017
40,55b237e6fdf99b19ea79d2f7,10.0,5.0,left,0.7179,2.3567,50.0,25.0,0.0,1.0,Medium,0.39569311930522166,-25.0,-25.0,-0.3314249953996998
41,55b237e6fdf99b19ea79d2f7,11.0,7.0,left,0.9285,,50.0,,0.0,1.0,High,,,-25.0,-0.07418489818937658
42,55b237e6fdf99b19ea79d2f7,12.0,1.0,right,0.8034,,50.0,,1.0,0.0,Low,,,-25.0,-0.21890255705695522
43,55b237e6fdf99b19ea79d2f7,13.0,7.0,left,0.7597,,50.0,,0.0,1.0,High,,,-25.0,-0.2748316604729611
44,55b237e6fdf99b19ea79d2f7,14.0,5.0,left,0.7265,2.03,50.0,25.0,0.0,1.0,Medium,0.39569311930522166,-25.0,-25.0,-0.3195167959717994
45,55b237e6fdf99b19ea79d2f7,15.0,3.0,right,0.7406,,50.0,,1.0,0.0,Low,,,-25.0,-0.3002946105026247
46,55b237e6fdf99b19ea79d2f7,16.0,5.0,left,0.5152,,41.0,,0.0,1.0,Medium,,,-25.0,-0.6632001041919932
47,55b237e6fdf99b19ea79d2f7,17.0,5.0,left,0.6456,,50.0,,0.0,1.0,Medium,,,-25.0,-0.43757516202639807
48,55b237e6fdf99b19ea79d2f7,18.0,3.0,right,0.7711,2.7735,50.0,15.0,1.0,0.0,Low,-0.8218241708646912,-35.0,-35.0,-0.2599372121432221
49,55b237e6fdf99b19ea79d2f7,19.0,1.0,right,0.7372,,33.0,,1.0,0.0,Low,,,-35.0,-0.3048960531864689
50,55b237e6fdf99b19ea79d2f7,20.0,3.0,right,0.6944,,45.0,,1.0,0.0,Low,,,-35.0,-0.3647071156359966
51,55b237e6fdf99b19ea79d2f7,21.0,9.0,left,0.7155,3.6654,50.0,40.0,0.0,1.0,High,2.221969054560091,-10.0,-10.0,-0.3347736799856314
52,55b237e6fdf99b19ea79d2f7,22.0,8.0,left,1.066,,48.0,,0.0,1.0,High,,,-10.0,0.06391332574365285
53,55b237e6fdf99b19ea79d2f7,23.0,8.0,left,0.6812,,50.0,,0.0,1.0,High,,,-10.0,-0.3838993301936038
54,55b237e6fdf99b19ea79d2f7,24.0,6.0,left,0.6725,2.5924,13.0,28.0,0.0,1.0,Medium,0.7609483063561956,15.0,15.0,-0.3967531675061429
55,55b237e6fdf99b19ea79d2f7,25.0,2.0,right,1.3279,,7.0,,1.0,0.0,Low,,,15.0,0.28359874701414484
56,55b237e6fdf99b19ea79d2f7,26.0,6.0,left,1.0252,,50.0,,0.0,1.0,Medium,,,15.0,0.024887715507778883
57,55b237e6fdf99b19ea79d2f7,27.0,4.0,right,1.2821,2.7698,48.0,15.0,1.0,0.0,Medium,-0.8218241708646912,-33.0,-33.0,0.24849935857651795
58,55b237e6fdf99b19ea79d2f7,28.0,4.0,right,1.1106,,21.0,,1.0,0.0,Medium,,,-33.0,0.1049004098253698
59,55b237e6fdf99b19ea79d2f7,29.0,4.0,right,0.9131,2.2386,35.0,15.0,1.0,0.0,Medium,-0.8218241708646912,-20.0,-20.0,-0.0909098753598426
0,55b508f4fdf99b1c26c21c69,0.0,5.0,left,1.211,,50.0,,0.0,1.0,Medium,,,,0.19144646457095527
1,55b508f4fdf99b1c26c21c69,1.0,5.0,left,1.143,4.471,50.0,25.0,0.0,1.0,Medium,0.8302444114672506,-25.0,-25.0,0.1336563848126736
2,55b508f4fdf99b1c26c21c69,2.0,9.0,left,0.769,,50.0,,0.0,1.0,High,,,-25.0,-0.26266430947649305
3,55b508f4fdf99b1c26c21c69,3.0,6.0,left,1.188,,25.0,,0.0,1.0,Medium,,,-25.0,0.17227122094045313
4,55b508f4fdf99b1c26c21c69,4.0,5.0,left,0.874,,44.0,,0.0,1.0,Medium,,,-25.0,-0.1346749033266016
5,55b508f4fdf99b1c26c21c69,5.0,7.0,left,0.82,1.926,45.0,25.0,0.0,1.0,High,0.8302444114672506,-20.0,-20.0,-0.19845093872383832
6,55b508f4fdf99b1c26c21c69,6.0,5.0,left,0.619,,50.0,,0.0,1.0,Medium,,,-20.0,-0.47965000629754095
7,55b508f4fdf99b1c26c21c69,7.0,4.0,left,1.032,,49.0,,0.0,1.0,Medium,,,-20.0,0.031498667059371016
8,55b508f4fdf99b1c26c21c69,8.0,3.0,right,1.067,1.936,43.0,23.0,1.0,0.0,Low,0.5014347435594286,-20.0,-20.0,0.06485097231961627
9,55b508f4fdf99b1c26c21c69,9.0,5.0,left,0.769,,35.0,,0.0,1.0,Medium,,,-20.0,-0.26266430947649305
10,55b508f4fdf99b1c26c21c69,10.0,4.0,left,1.223,,50.0,,0.0,1.0,Medium,,,-20.0,0.20130685670503537
11,55b508f4fdf99b1c26c21c69,11.0,1.0,right,0.921,,50.0,,1.0,0.0,Low,,,-20.0,-0.08229524272683016
12,55b508f4fdf99b1c26c21c69,12.0,6.0,left,1.149,1.859,50.0,25.0,0.0,1.0,Medium,0.8302444114672506,-25.0,-25.0,0.13889199886661865
13,55b508f4fdf99b1c26c21c69,13.0,4.0,left,1.014,,50.0,,0.0,1.0,Medium,,,-25.0,0.013902905168991434
14,55b508f4fdf99b1c26c21c69,14.0,1.0,right,0.874,1.604,36.0,26.0,1.0,0.0,Low,0.9946492454211615,-10.0,-10.0,-0.1346749033266016
15,55b508f4fdf99b1c26c21c69,15.0,7.0,left,0.726,,48.0,,0.0,1.0,High,,,-10.0,-0.320205264157341
16,55b508f4fdf99b1c26c21c69,16.0,8.0,left,0.564,1.829,50.0,25.0,0.0,1.0,High,0.8302444114672506,-25.0,-25.0,-0.5727010274840783
17,55b508f4fdf99b1c26c21c69,17.0,3.0,right,0.95,,50.0,,1.0,0.0,Low,,,-25.0,-0.05129329438755058
18,55b508f4fdf99b1c26c21c69,18.0,2.0,right,0.799,,23.0,,1.0,0.0,Low,,,-25.0,-0.22439433321586233
19,55b508f4fdf99b1c26c21c69,19.0,3.0,right,0.858,,50.0,,1.0,0.0,Low,,,-25.0,-0.15315117949417478
20,55b508f4fdf99b1c26c21c69,20.0,7.0,left,0.946,1.46,50.0,25.0,0.0,1.0,High,0.8302444114672506,-25.0,-25.0,-0.05551270993025883
21,55b508f4fdf99b1c26c21c69,21.0,6.0,left,0.71,,50.0,,0.0,1.0,Medium,,,-25.0,-0.342490308946776
22,55b508f4fdf99b1c26c21c69,22.0,5.0,left,0.58,,50.0,,0.0,1.0,Medium,,,-25.0,-0.5447271754416722
23,55b508f4fdf99b1c26c21c69,23.0,4.0,left,0.911,1.682,50.0,25.0,0.0,1.0,Medium,0.8302444114672506,-25.0,-25.0,-0.0932123817221787
24,55b508f4fdf99b1c26c21c69,24.0,6.0,left,0.617,,32.0,,0.0,1.0,Medium,,,-25.0,-0.48288625507674926
25,55b508f4fdf99b1c26c21c69,25.0,8.0,left,0.697,,50.0,,0.0,1.0,High,,,-25.0,-0.36096986822161325
26,55b508f4fdf99b1c26c21c69,26.0,2.0,right,0.842,1.762,50.0,25.0,1.0,0.0,Low,0.8302444114672506,-25.0,-25.0,-0.17197526473981037
27,55b508f4fdf99b1c26c21c69,27.0,9.0,left,0.784,,50.0,,0.0,1.0,High,,,-25.0,-0.24334625863172918
28,55b508f4fdf99b1c26c21c69,28.0,8.0,left,0.66,,31.0,,0.0,1.0,High,,,-25.0,-0.4155154439616658
29,55b508f4fdf99b1c26c21c69,29.0,2.0,right,0.661,2.367,21.0,11.0,1.0,0.0,Low,-1.471423263887503,-10.0,-10.0,-0.41400143913045073
30,55b508f4fdf99b1c26c21c69,0.0,5.0,left,0.806,,50.0,,0.0,1.0,Medium,,,-10.0,-0.2156715364755087
31,55b508f4fdf99b1c26c21c69,1.0,1.0,right,0.604,2.538,42.0,12.0,1.0,0.0,Low,-1.307018429933592,-30.0,-30.0,-0.5041810810473222
32,55b508f4fdf99b1c26c21c69,2.0,6.0,left,0.595,,50.0,,0.0,1.0,Medium,,,-30.0,-0.5191938734365074
33,55b508f4fdf99b1c26c21c69,3.0,7.0,left,0.473,,50.0,,0.0,1.0,High,,,-30.0,-0.7486598904902041
34,55b508f4fdf99b1c26c21c69,4.0,8.0,left,0.505,,50.0,,0.0,1.0,High,,,-30.0,-0.6831968497067772
35,55b508f4fdf99b1c26c21c69,5.0,5.0,left,0.538,2.228,50.0,10.0,0.0,1.0,Medium,-1.6358280978414141,-40.0,-40.0,-0.6198967188203526
36,55b508f4fdf99b1c26c21c69,6.0,5.0,left,0.602,,50.0,,0.0,1.0,Medium,,,-40.0,-0.507497833673316
37,55b508f4fdf99b1c26c21c69,7.0,4.0,left,0.943,,50.0,,0.0,1.0,Medium,,,-40.0,-0.05868899634867961
38,55b508f4fdf99b1c26c21c69,8.0,4.0,left,0.667,1.66,34.0,14.0,0.0,1.0,Medium,-0.9782087620257702,-20.0,-20.0,-0.4049652330665133
39,55b508f4fdf99b1c26c21c69,9.0,8.0,left,0.621,,11.0,,0.0,1.0,High,,,-20.0,-0.4764241970486583
40,55b508f4fdf99b1c26c21c69,10.0,5.0,left,0.54,,50.0,,0.0,1.0,Medium,,,-20.0,-0.616186139423817
41,55b508f4fdf99b1c26c21c69,11.0,7.0,left,0.52,,23.0,,0.0,1.0,High,,,-20.0,-0.6539264674066639
42,55b508f4fdf99b1c26c21c69,12.0,2.0,left,0.514,1.403,7.0,7.0,0.0,1.0,Low,-2.1290425997031472,0.0,0.0,-0.6655320135269719
43,55b508f4fdf99b1c26c21c69,13.0,9.0,left,0.593,,35.0,,0.0,1.0,High,,,0.0,-0.5225608799844117
44,55b508f4fdf99b1c26c21c69,14.0,5.0,left,0.627,1.358,27.0,17.0,0.0,1.0,Medium,-0.4849942601640373,-10.0,-10.0,-0.4668087383492164
45,55b508f4fdf99b1c26c21c69,15.0,3.0,right,0.818,,50.0,,1.0,0.0,Low,,,-10.0,-0.20089294237939007
46,55b508f4fdf99b1c26c21c69,16.0,8.0,left,0.642,2.048,38.0,18.0,0.0,1.0,High,-0.3205894262101263,-20.0,-20.0,-0.44316697529217586
47,55b508f4fdf99b1c26c21c69,17.0,3.0,right,0.731,,42.0,,1.0,0.0,Low,,,-20.0,-0.3133418192323586
48,55b508f4fdf99b1c26c21c69,18.0,4.0,left,1.028,,50.0,,0.0,1.0,Medium,,,-20.0,0.02761516703297339
49,55b508f4fdf99b1c26c21c69,19.0,3.0,right,0.821,,50.0,,1.0,0.0,Low,,,-20.0,-0.1972321695297089
50,55b508f4fdf99b1c26c21c69,20.0,5.0,left,0.639,1.922,42.0,22.0,0.0,1.0,Medium,0.3370299096055176,-20.0,-20.0,-0.44785082460460224
51,55b508f4fdf99b1c26c21c69,21.0,1.0,right,0.752,,44.0,,1.0,0.0,Low,,,-20.0,-0.28501895503229724
52,55b508f4fdf99b1c26c21c69,22.0,7.0,left,0.737,,50.0,,0.0,1.0,High,,,-20.0,-0.3051673867928005
53,55b508f4fdf99b1c26c21c69,23.0,4.0,left,0.73,1.835,50.0,20.0,0.0,1.0,Medium,0.008220241697695667,-30.0,-30.0,-0.31471074483970024
54,55b508f4fdf99b1c26c21c69,24.0,6.0,left,0.608,,26.0,,0.0,1.0,Medium,,,-30.0,-0.49758039701597007
55,55b508f4fdf99b1c26c21c69,25.0,2.0,right,0.867,,50.0,,1.0,0.0,Low,,,-30.0,-0.1427163022015952
56,55b508f4fdf99b1c26c21c69,26.0,2.0,right,0.742,1.833,44.0,24.0,1.0,0.0,Low,0.6658395775133396,-20.0,-20.0,-0.2984060358147566
57,55b508f4fdf99b1c26c21c69,27.0,6.0,left,0.65,,45.0,,0.0,1.0,Medium,,,-20.0,-0.4307829160924542
58,55b508f4fdf99b1c26c21c69,28.0,6.0,left,0.539,,50.0,,0.0,1.0,Medium,,,-20.0,-0.6180397080731398
59,55b508f4fdf99b1c26c21c69,29.0,9.0,left,0.585,1.982,50.0,20.0,0.0,1.0,High,0.008220241697695667,-30.0,-30.0,-0.5361434317502807
0,55c694e3fdf99b6c4f28595f,0.0,5.0,right,1.9758,,28.0,,1.0,0.0,Medium,,,,0.6809733796282366
1,55c694e3fdf99b6c4f28595f,1.0,8.0,left,1.1726,,15.0,,0.0,1.0,High,,,,0.15922350554797773
2,55c694e3fdf99b6c4f28595f,2.0,5.0,right,1.0576,6.3234,50.0,11.06386999,1.0,0.0,Medium,-0.12914039451479006,-38.93613001,-38.93613001,0.05600219011528488
3,55c694e3fdf99b6c4f28595f,3.0,5.0,right,1.2605,,7.0,,1.0,0.0,Medium,,,-38.93613001,0.23150846764583743
4,55c694e3fdf99b6c4f28595f,4.0,5.0,right,1.2463,,50.0,,1.0,0.0,Medium,,,-38.93613001,0.2201791618501941
5,55c694e3fdf99b6c4f28595f,5.0,7.0,left,2.8408,6.3273,7.0,6.575963719,0.0,1.0,High,-0.5703284713499986,-0.42403628100000024,-0.42403628100000024,1.0440857026467412
6,55c694e3fdf99b6c4f28595f,6.0,2.0,right,1.3743,,50.0,,1.0,0.0,Low,,,-0.42403628100000024,0.3179445105786691
7,55c694e3fdf99b6c4f28595f,7.0,3.0,right,1.0136,,47.0,,1.0,0.0,Low,,,-0.42403628100000024,0.0135083500247923
8,55c694e3fdf99b6c4f28595f,8.0,4.0,right,0.8195,,43.0,,1.0,0.0,Medium,,,-0.42403628100000024,-0.19906088079825268
9,55c694e3fdf99b6c4f28595f,9.0,6.0,right,0.9842,4.6431,39.0,0.0,1.0,0.0,Medium,-1.2167851064341488,,-0.42403628100000024,-0.015926150550259255
10,55c694e3fdf99b6c4f28595f,10.0,4.0,right,1.0604,,39.0,,1.0,0.0,Medium,,,-0.42403628100000024,0.05864619543273343
11,55c694e3fdf99b6c4f28595f,11.0,2.0,right,1.0783,2.9718,50.0,0.0,1.0,0.0,Low,-1.2167851064341488,,-0.42403628100000024,0.07538572690588966
12,55c694e3fdf99b6c4f28595f,12.0,5.0,right,1.2611,,50.0,,1.0,0.0,Medium,,,-0.42403628100000024,0.23198435597969183
13,55c694e3fdf99b6c4f28595f,13.0,2.0,right,2.2196,,33.0,,1.0,0.0,Low,,,-0.42403628100000024,0.797326999469609
14,55c694e3fdf99b6c4f28595f,14.0,6.0,right,1.7329,,50.0,,1.0,0.0,Medium,,,-0.42403628100000024,0.5497963056640627
15,55c694e3fdf99b6c4f28595f,15.0,3.0,right,0.6598,3.4274,43.0,0.84797808,1.0,0.0,Low,-1.1334237803006038,-42.15202192,-42.15202192,-0.4158185201876559
16,55c694e3fdf99b6c4f28595f,16.0,6.0,right,0.979,,40.0,,1.0,0.0,Medium,,,-42.15202192,-0.021223636451626688
17,55c694e3fdf99b6c4f28595f,17.0,4.0,right,0.6269,4.3704,50.0,0.966080877,1.0,0.0,Medium,-1.121813567713504,-49.033919123,-49.033919123,-0.4669682407022142
18,55c694e3fdf99b6c4f28595f,18.0,7.0,left,1.1387,,20.0,,0.0,1.0,High,,,-49.033919123,0.1298872608344223
19,55c694e3fdf99b6c4f28595f,19.0,3.0,right,0.6427,,50.0,,1.0,0.0,Low,,,-49.033919123,-0.44207722660489646
20,55c694e3fdf99b6c4f28595f,20.0,5.0,right,2.6889,,17.0,,1.0,0.0,Medium,,,-49.033919123,0.9891321880492886
21,55c694e3fdf99b6c4f28595f,21.0,7.0,left,0.7737,3.9886,50.0,13.66213152,0.0,1.0,High,0.12628428200818506,-36.33786848,-36.33786848,-0.2565710774267282
22,55c694e3fdf99b6c4f28595f,22.0,1.0,right,0.9595,,50.0,,1.0,0.0,Low,,,-36.33786848,-0.04134296353438243
23,55c694e3fdf99b6c4f28595f,23.0,9.0,left,0.9032,,9.0,,0.0,1.0,High,,,-36.33786848,-0.10181126614668479
24,55c694e3fdf99b6c4f28595f,24.0,4.0,right,0.8659,5.5524,50.0,25.0590514,1.0,0.0,Medium,1.2466697936649984,-24.9409486,-24.9409486,-0.14398585052838153
25,55c694e3fdf99b6c4f28595f,25.0,1.0,right,0.7523,,50.0,,1.0,0.0,Low,,,-24.9409486,-0.2846200984159612
26,55c694e3fdf99b6c4f28595f,26.0,6.0,right,1.3069,,46.0,,1.0,0.0,Medium,,,-24.9409486,0.26765792062085314
27,55c694e3fdf99b6c4f28595f,27.0,9.0,left,0.8191,3.2418,50.0,29.96031746,0.0,1.0,High,1.7284936145059038,-20.03968254,-20.03968254,-0.19954910246058064
28,55c694e3fdf99b6c4f28595f,28.0,8.0,left,0.8152,,50.0,,0.0,1.0,High,,,-20.03968254,-0.20432179707362194
29,55c694e3fdf99b6c4f28595f,29.0,8.0,left,0.7631,3.3404,48.0,32.0861678,0.0,1.0,High,1.937477440483867,-15.913832200000002,-15.913832200000002,-0.27036619468654954
30,55c694e3fdf99b6c4f28595f,0.0,5.0,right,1.446,,50.0,,1.0,0.0,Medium,,,-15.913832200000002,0.3688011237365729
31,55c694e3fdf99b6c4f28595f,1.0,8.0,left,0.9315,,50.0,,0.0,1.0,High,,,-15.913832200000002,-0.07095908894049391
32,55c694e3fdf99b6c4f28595f,2.0,6.0,right,0.8757,3.974,39.0,20.09873394,1.0,0.0,Medium,0.7590408663830838,-18.90126606,-18.90126606,-0.13273171245395826
33,55c694e3fdf99b6c4f28595f,3.0,3.0,right,0.6232,,50.0,,1.0,0.0,Low,,,-18.90126606,-0.4728877844255986
34,55c694e3fdf99b6c4f28595f,4.0,8.0,left,0.8626,,19.0,,0.0,1.0,High,,,-18.90126606,-0.14780419476839426
35,55c694e3fdf99b6c4f28595f,5.0,4.0,right,0.5527,2.5876,50.0,18.91770597,1.0,0.0,Medium,0.6429387405120843,-31.08229403,-31.08229403,-0.5929399201429199
36,55c694e3fdf99b6c4f28595f,6.0,4.0,right,1.3221,,12.0,,1.0,0.0,Medium,,,-31.08229403,0.279221381533914
37,55c694e3fdf99b6c4f28595f,7.0,9.0,left,0.6091,,32.0,,0.0,1.0,High,,,-31.08229403,-0.49577282113969817
38,55c694e3fdf99b6c4f28595f,8.0,1.0,right,0.6985,,50.0,,1.0,0.0,Low,,,-31.08229403,-0.3588201002851205
39,55c694e3fdf99b6c4f28595f,9.0,4.0,right,0.8684,2.5322,50.0,20.09873394,1.0,0.0,Medium,0.7590408663830838,-29.90126606,-29.90126606,-0.14110284097800033
40,55c694e3fdf99b6c4f28595f,10.0,3.0,right,0.9348,,50.0,,1.0,0.0,Low,,,-29.90126606,-0.0674226763174342
41,55c694e3fdf99b6c4f28595f,11.0,2.0,right,0.5637,3.421,43.0,6.989323507,1.0,0.0,Low,-0.5296927274426079,-36.010676493,-36.010676493,-0.5732330838946078
42,55c694e3fdf99b6c4f28595f,12.0,8.0,left,1.0093,,25.0,,0.0,1.0,High,,,-36.010676493,0.009257021262676848
43,55c694e3fdf99b6c4f28595f,13.0,5.0,right,0.7104,,50.0,,1.0,0.0,Medium,,,-36.010676493,-0.3419270873041767
44,55c694e3fdf99b6c4f28595f,14.0,9.0,left,0.5472,,50.0,,0.0,1.0,High,,,-36.010676493,-0.6029409126737963
45,55c694e3fdf99b6c4f28595f,15.0,2.0,right,0.5252,2.3877,50.0,17.9728836,1.0,0.0,Low,0.5500570404051205,-32.0271164,-32.0271164,-0.643976136553496
46,55c694e3fdf99b6c4f28595f,16.0,5.0,right,0.642,,6.0,,1.0,0.0,Medium,,,-32.0271164,-0.44316697529217586
47,55c694e3fdf99b6c4f28595f,17.0,7.0,left,0.7255,2.5079,32.0,18.62244898,0.0,1.0,High,0.6139132092900995,-13.377551019999999,-13.377551019999999,-0.3208942066578945
48,55c694e3fdf99b6c4f28595f,18.0,2.0,right,0.5551,,50.0,,1.0,0.0,Low,,,-13.377551019999999,-0.5886070012860214
49,55c694e3fdf99b6c4f28595f,19.0,5.0,right,0.4952,,22.0,,1.0,0.0,Medium,,,-13.377551019999999,-0.7027935576117508
50,55c694e3fdf99b6c4f28595f,20.0,6.0,right,0.6499,,50.0,,1.0,0.0,Medium,,,-13.377551019999999,-0.4309367740818338
51,55c694e3fdf99b6c4f28595f,21.0,7.0,left,0.941,2.8222,50.0,12.95351474,0.0,1.0,High,0.05662300668219715,-37.04648526,-37.04648526,-0.060812139396757475
52,55c694e3fdf99b6c4f28595f,22.0,4.0,right,0.724,,50.0,,1.0,0.0,Medium,,,-37.04648526,-0.3229638865964207
53,55c694e3fdf99b6c4f28595f,23.0,5.0,right,0.6392,,50.0,,1.0,0.0,Medium,,,-37.04648526,-0.44753788453007215
54,55c694e3fdf99b6c4f28595f,24.0,6.0,right,0.6936,2.777,50.0,5.276832955,1.0,0.0,Medium,-0.6980408095131803,-44.723167045,-44.723167045,-0.36585985351580497
55,55c694e3fdf99b6c4f28595f,25.0,5.0,right,0.5681,,23.0,,1.0,0.0,Medium,,,-44.723167045,-0.5654578194190557
56,55c694e3fdf99b6c4f28595f,26.0,6.0,right,0.6421,,17.0,,1.0,0.0,Medium,,,-44.723167045,-0.44301122418213434
57,55c694e3fdf99b6c4f28595f,27.0,1.0,right,0.4963,4.1102,36.0,0.0,1.0,0.0,Low,-1.2167851064341488,,-44.723167045,-0.7005746963887419
58,55c694e3fdf99b6c4f28595f,28.0,7.0,left,0.7436,,47.0,,0.0,1.0,High,,,-44.723167045,-0.29625202313484805
59,55c694e3fdf99b6c4f28595f,29.0,3.0,right,0.6028,3.9758,50.0,6.398809524,1.0,0.0,Low,-0.5877437901814956,-43.601190476,-43.601190476,-0.5061698122297966
0,55ed87f0748092000baa9a0b,0.0,5.0,left,6.117,,19.0,,0.0,1.0,Medium,,,,1.811071780260428
1,55ed87f0748092000baa9a0b,1.0,3.0,left,3.133,,50.0,,0.0,1.0,Low,,,,1.1419910119700547
2,55ed87f0748092000baa9a0b,2.0,6.0,left,0.408,,37.0,,0.0,1.0,Medium,,,,-0.8964881045779755
3,55ed87f0748092000baa9a0b,3.0,1.0,left,0.477,4.095,50.0,10.8867158,0.0,1.0,Low,0.09081089574860847,-39.1132842,-39.1132842,-0.7402387880937958
4,55ed87f0748092000baa9a0b,4.0,6.0,left,0.636,,50.0,,0.0,1.0,Medium,,,-39.1132842,-0.4525567156420149
5,55ed87f0748092000baa9a0b,5.0,5.0,left,0.533,4.614,22.0,16.20134165,0.0,1.0,Medium,1.3678391071889946,-5.79865835,-5.79865835,-0.6292338548162925
6,55ed87f0748092000baa9a0b,6.0,2.0,left,0.497,,33.0,,0.0,1.0,Low,,,-5.79865835,-0.6991652528855083
7,55ed87f0748092000baa9a0b,7.0,5.0,left,0.486,,50.0,,0.0,1.0,Medium,,,-5.79865835,-0.7215466550816433
8,55ed87f0748092000baa9a0b,8.0,2.0,left,0.486,,33.0,,0.0,1.0,Low,,,-5.79865835,-0.7215466550816433
9,55ed87f0748092000baa9a0b,9.0,8.0,left,0.459,3.732,28.0,12.18584656,0.0,1.0,High,0.4029733466330842,-15.81415344,-15.81415344,-0.7787050689215919
10,55ed87f0748092000baa9a0b,10.0,3.0,left,0.653,,50.0,,0.0,1.0,Low,,,-15.81415344,-0.42617814970570594
11,55ed87f0748092000baa9a0b,11.0,5.0,left,0.83,,18.0,,0.0,1.0,Medium,,,-15.81415344,-0.18632957819149348
12,55ed87f0748092000baa9a0b,12.0,4.0,left,0.407,3.604,10.0,9.174225246,0.0,1.0,Medium,-0.3206759729428487,-0.8257747539999993,-0.8257747539999993,-0.8989420935395421
13,55ed87f0748092000baa9a0b,13.0,9.0,left,0.809,,50.0,,0.0,1.0,High,,,-0.8257747539999993,-0.2119563619236453
14,55ed87f0748092000baa9a0b,14.0,4.0,left,0.352,,50.0,,0.0,1.0,Medium,,,-0.8257747539999993,-1.04412410338404
15,55ed87f0748092000baa9a0b,15.0,5.0,left,0.412,3.031,50.0,9.174225246,0.0,1.0,Medium,-0.3206759729428487,-40.825774754,-40.825774754,-0.8867319296326107
16,55ed87f0748092000baa9a0b,16.0,8.0,left,0.629,,50.0,,0.0,1.0,High,,,-40.825774754,-0.4636240222816965
17,55ed87f0748092000baa9a0b,17.0,7.0,left,0.625,2.348,50.0,9.233276644,0.0,1.0,High,-0.30648677067360647,-40.766723356,-40.766723356,-0.4700036292457356
18,55ed87f0748092000baa9a0b,18.0,7.0,left,0.516,,39.0,,0.0,1.0,High,,,-40.766723356,-0.6616485135005743
19,55ed87f0748092000baa9a0b,19.0,8.0,left,0.378,3.554,17.0,10.6505102,0.0,1.0,High,0.03405408474935381,-6.349489800000001,-6.349489800000001,-0.9728610833625494
20,55ed87f0748092000baa9a0b,20.0,4.0,left,0.711,,50.0,,0.0,1.0,Medium,,,-6.349489800000001,-0.3410828491788962
21,55ed87f0748092000baa9a0b,21.0,9.0,left,0.454,,50.0,,0.0,1.0,High,,,-6.349489800000001,-0.789658080940789
22,55ed87f0748092000baa9a0b,22.0,3.0,left,0.512,,6.0,,0.0,1.0,Low,,,-6.349489800000001,-0.6694306539426292
23,55ed87f0748092000baa9a0b,23.0,4.0,left,0.477,0.933,50.0,11.59533258,0.0,1.0,Medium,0.2610813239406599,-38.40466742,-38.40466742,-0.7402387880937958
24,55ed87f0748092000baa9a0b,24.0,7.0,left,0.679,,50.0,,0.0,1.0,High,,,-38.40466742,-0.3871341514234409
25,55ed87f0748092000baa9a0b,25.0,2.0,left,0.351,,18.0,,0.0,1.0,Low,,,-38.40466742,-1.0469690555162714
26,55ed87f0748092000baa9a0b,26.0,5.0,left,0.436,2.234,35.0,11.59533258,0.0,1.0,Medium,0.2610813239406599,-23.404667420000003,-23.404667420000003,-0.8301130356331028
27,55ed87f0748092000baa9a0b,27.0,1.0,left,0.412,,50.0,,0.0,1.0,Low,,,-23.404667420000003,-0.8867319296326107
28,55ed87f0748092000baa9a0b,28.0,6.0,left,0.393,,32.0,,0.0,1.0,Medium,,,-23.404667420000003,-0.9339456671128757
29,55ed87f0748092000baa9a0b,29.0,6.0,left,0.638,3.537,42.0,10.29620181,0.0,1.0,Medium,-0.0510811293466719,-31.70379819,-31.70379819,-0.44941699563734716
30,55ed87f0748092000baa9a0b,0.0,5.0,left,0.832,,23.0,,0.0,1.0,Medium,,,-31.70379819,-0.1839228381609285
31,55ed87f0748092000baa9a0b,1.0,6.0,left,0.459,,44.0,,0.0,1.0,Medium,,,-31.70379819,-0.7787050689215919
32,55ed87f0748092000baa9a0b,2.0,9.0,left,0.398,,50.0,,0.0,1.0,High,,,-31.70379819,-0.9213032736976993
33,55ed87f0748092000baa9a0b,3.0,8.0,left,0.43,3.139,50.0,18.79960317,0.0,1.0,High,1.9921640089579462,-31.20039683,-31.20039683,-0.843970070294529
34,55ed87f0748092000baa9a0b,4.0,9.0,left,0.411,,50.0,,0.0,1.0,High,,,-31.20039683,-0.8891620644859025
35,55ed87f0748092000baa9a0b,5.0,5.0,left,0.5,3.964,50.0,11.89058957,0.0,1.0,Medium,0.33202733528687206,-38.10941043,-38.10941043,-0.6931471805599453
36,55ed87f0748092000baa9a0b,6.0,3.0,left,0.65,,50.0,,0.0,1.0,Low,,,-38.10941043,-0.4307829160924542
37,55ed87f0748092000baa9a0b,7.0,1.0,left,0.386,,50.0,,0.0,1.0,Low,,,-38.10941043,-0.9519179095173061
38,55ed87f0748092000baa9a0b,8.0,6.0,left,0.367,,47.0,,0.0,1.0,Medium,,,-38.10941043,-1.0023934309275668
39,55ed87f0748092000baa9a0b,9.0,4.0,left,0.503,1.689,22.0,7.461734694,0.0,1.0,Medium,-0.7321628411537353,-14.538265306,-14.538265306,-0.6871651088823978
40,55ed87f0748092000baa9a0b,10.0,7.0,left,0.586,,50.0,,0.0,1.0,High,,,-14.538265306,-0.5344354894051245
41,55ed87f0748092000baa9a0b,11.0,4.0,left,0.488,,50.0,,0.0,1.0,Medium,,,-14.538265306,-0.7174398731289899
42,55ed87f0748092000baa9a0b,12.0,7.0,left,0.487,3.037,37.0,7.343631897,0.0,1.0,High,-0.7605412459325056,-29.656368103,-29.656368103,-0.7194911558995473
43,55ed87f0748092000baa9a0b,13.0,2.0,left,0.655,,50.0,,0.0,1.0,Low,,,-29.656368103,-0.4231200433468851
44,55ed87f0748092000baa9a0b,14.0,4.0,left,0.575,,50.0,,0.0,1.0,Medium,,,-29.656368103,-0.5533852381847867
45,55ed87f0748092000baa9a0b,15.0,5.0,left,0.502,2.844,22.0,11.35912698,0.0,1.0,Medium,0.20432451294140525,-10.64087302,-10.64087302,-0.6891551592904078
46,55ed87f0748092000baa9a0b,16.0,2.0,left,0.671,,50.0,,0.0,1.0,Low,,,-10.64087302,-0.3989861420104552
47,55ed87f0748092000baa9a0b,17.0,3.0,left,0.407,2.905,50.0,4.568216175,0.0,1.0,Low,-1.4274337564314692,-45.431783825,-45.431783825,-0.8989420935395421
48,55ed87f0748092000baa9a0b,18.0,5.0,left,0.985,,14.0,,0.0,1.0,Medium,,,-45.431783825,-0.015113637810048184
49,55ed87f0748092000baa9a0b,19.0,1.0,left,0.363,3.254,50.0,0.907029478,0.0,1.0,Low,-2.307164302170497,-49.092970522,-49.092970522,-1.0133524447172864
50,55ed87f0748092000baa9a0b,20.0,5.0,left,0.515,,50.0,,0.0,1.0,Medium,,,-49.092970522,-0.6635883783184009
51,55ed87f0748092000baa9a0b,21.0,4.0,left,0.934,,50.0,,0.0,1.0,Medium,,,-49.092970522,-0.06827884075329438
52,55ed87f0748092000baa9a0b,22.0,3.0,left,0.662,,29.0,,0.0,1.0,Low,,,-49.092970522,-0.4124897230451288
53,55ed87f0748092000baa9a0b,23.0,5.0,left,2.628,4.883,50.0,6.753117914,0.0,1.0,Medium,-0.9024332693457867,-43.246882086,-43.246882086,0.9662231006223642
54,55ed87f0748092000baa9a0b,24.0,7.0,left,0.841,,15.0,,0.0,1.0,High,,,-43.246882086,-0.17316361900918903
55,55ed87f0748092000baa9a0b,25.0,2.0,left,0.413,,47.0,,0.0,1.0,Low,,,-43.246882086,-0.8843076860211043
56,55ed87f0748092000baa9a0b,26.0,8.0,left,0.547,3.03,29.0,17.55952381,0.0,1.0,High,1.6941907608232845,-11.440476189999998,-11.440476189999998,-0.6033064765601558
57,55ed87f0748092000baa9a0b,27.0,6.0,left,0.695,,31.0,,0.0,1.0,Medium,,,-11.440476189999998,-0.363843433417345
58,55ed87f0748092000baa9a0b,28.0,6.0,left,0.505,,39.0,,0.0,1.0,Medium,,,-11.440476189999998,-0.6831968497067772
59,55ed87f0748092000baa9a0b,29.0,8.0,left,0.614,5.029,50.0,12.54015495,0.0,1.0,High,0.48810856072910996,-37.45984505,-37.45984505,-0.4877603508349946
0,562563ceed6e5a000bc7f386,0.0,5.0,left,2.2083,,50.0,,0.0,1.0,Medium,,,,0.7922229887506329
1,562563ceed6e5a000bc7f386,1.0,8.0,left,0.9481,,33.0,,0.0,1.0,High,,,,-0.053295297058223556
2,562563ceed6e5a000bc7f386,2.0,4.0,left,0.5754,,50.0,,0.0,1.0,Medium,,,,-0.5526898278646895
3,562563ceed6e5a000bc7f386,3.0,9.0,left,1.6778,26.9554,50.0,25.49824617,0.0,1.0,High,-0.15109818894165566,-24.50175383,-24.50175383,0.5174834114300572
4,562563ceed6e5a000bc7f386,4.0,2.0,right,1.875,,36.0,,1.0,0.0,Low,,,-24.50175383,0.6286086594223741
5,562563ceed6e5a000bc7f386,5.0,3.0,right,2.2589,,50.0,,1.0,0.0,Low,,,-24.50175383,0.8148779691310925
6,562563ceed6e5a000bc7f386,6.0,1.0,right,0.8807,,50.0,,1.0,0.0,Low,,,-24.50175383,-0.1270382331707232
7,562563ceed6e5a000bc7f386,7.0,4.0,right,1.0548,2.9774,50.0,25.49824617,1.0,0.0,Medium,-0.15109818894165566,-24.50175383,-24.50175383,0.053351175496994536
8,562563ceed6e5a000bc7f386,8.0,4.0,right,1.4834,,15.0,,1.0,0.0,Medium,,,-24.50175383,0.3943367503203207
9,562563ceed6e5a000bc7f386,9.0,9.0,left,0.9625,,35.0,,0.0,1.0,High,,,-24.50175383,-0.03822121282019774
10,562563ceed6e5a000bc7f386,10.0,7.0,left,1.0281,2.1861,13.0,25.49824617,0.0,1.0,High,-0.15109818894165566,12.498246170000002,12.498246170000002,0.0277124385665358
11,562563ceed6e5a000bc7f386,11.0,2.0,right,2.1292,,43.0,,1.0,0.0,Low,,,12.498246170000002,0.7557463223164652
12,562563ceed6e5a000bc7f386,12.0,8.0,left,1.6787,,50.0,,0.0,1.0,High,,,12.498246170000002,0.5180196843462312
13,562563ceed6e5a000bc7f386,13.0,5.0,right,1.9621,,50.0,,1.0,0.0,Medium,,,12.498246170000002,0.6740153282439189
14,562563ceed6e5a000bc7f386,14.0,3.0,right,1.4191,2.8446,13.0,25.49824617,1.0,0.0,Low,-0.15109818894165566,12.498246170000002,12.498246170000002,0.3500228678583548
15,562563ceed6e5a000bc7f386,15.0,5.0,right,1.7209,,50.0,,1.0,0.0,Medium,,,12.498246170000002,0.5428474097887283
16,562563ceed6e5a000bc7f386,16.0,8.0,left,1.1828,,10.0,,0.0,1.0,High,,,12.498246170000002,0.16788450899618515
17,562563ceed6e5a000bc7f386,17.0,6.0,right,1.4478,3.4316,50.0,25.49824617,1.0,0.0,Medium,-0.15109818894165566,-24.50175383,-24.50175383,0.370045162876904
18,562563ceed6e5a000bc7f386,18.0,6.0,right,1.0872,,50.0,,1.0,0.0,Medium,,,-24.50175383,0.08360558385479686
19,562563ceed6e5a000bc7f386,19.0,5.0,right,0.8808,4.387,14.0,25.49824617,1.0,0.0,Medium,-0.15109818894165566,11.498246170000002,11.498246170000002,-0.1269246935736668
20,562563ceed6e5a000bc7f386,20.0,3.0,right,0.8112,,9.0,,1.0,0.0,Low,,,11.498246170000002,-0.20924064614521828
21,562563ceed6e5a000bc7f386,21.0,5.0,right,0.6531,4.0922,50.0,25.49824617,1.0,0.0,Medium,-0.15109818894165566,-24.50175383,-24.50175383,-0.4260250220735256
22,562563ceed6e5a000bc7f386,22.0,2.0,right,1.2808,,32.0,,1.0,0.0,Low,,,-24.50175383,0.24748488270036784
23,562563ceed6e5a000bc7f386,23.0,1.0,right,0.7681,,27.0,,1.0,0.0,Low,,,-24.50175383,-0.2638353459775008
24,562563ceed6e5a000bc7f386,24.0,6.0,left,1.9553,4.3325,30.0,25.49824617,0.0,1.0,Medium,-0.15109818894165566,-4.501753829999998,-4.501753829999998,0.6705436343500921
25,562563ceed6e5a000bc7f386,25.0,4.0,right,0.916,,50.0,,1.0,0.0,Medium,,,-4.501753829999998,-0.08773891430800675
26,562563ceed6e5a000bc7f386,26.0,6.0,right,1.3881,,50.0,,1.0,0.0,Medium,,,-4.501753829999998,0.3279359055989265
27,562563ceed6e5a000bc7f386,27.0,5.0,right,1.3955,3.0131,50.0,25.49824617,1.0,0.0,Medium,-0.15109818894165566,-24.50175383,-24.50175383,0.3332527739942398
28,562563ceed6e5a000bc7f386,28.0,7.0,left,1.048,,50.0,,0.0,1.0,High,,,-24.50175383,0.04688358589885046
29,562563ceed6e5a000bc7f386,29.0,7.0,right,0.9974,2.5826,18.0,25.49824617,1.0,0.0,High,-0.15109818894165566,7.498246170000002,7.498246170000002,-0.0026033858701149278
30,562563ceed6e5a000bc7f386,0.0,5.0,right,1.9347,,50.0,,1.0,0.0,Medium,,,7.498246170000002,0.6599522757023044
31,562563ceed6e5a000bc7f386,1.0,5.0,right,0.6827,,50.0,,1.0,0.0,Medium,,,7.498246170000002,-0.38169975455790245
32,562563ceed6e5a000bc7f386,2.0,9.0,left,1.0356,,49.0,,0.0,1.0,High,,,7.498246170000002,0.034980968895245594
33,562563ceed6e5a000bc7f386,3.0,8.0,left,1.3369,3.194,19.0,25.49824617,0.0,1.0,High,-0.15109818894165566,6.498246170000002,6.498246170000002,0.2903535010069398
34,562563ceed6e5a000bc7f386,4.0,6.0,right,1.014,,50.0,,1.0,0.0,Medium,,,6.498246170000002,0.013902905168991434
35,562563ceed6e5a000bc7f386,5.0,2.0,right,0.8721,,50.0,,1.0,0.0,Low,,,6.498246170000002,-0.13685118274919714
36,562563ceed6e5a000bc7f386,6.0,1.0,right,0.8464,,50.0,,1.0,0.0,Low,,,6.498246170000002,-0.16676321787810205
37,562563ceed6e5a000bc7f386,7.0,5.0,right,0.8311,1.3785,50.0,25.08304103,1.0,0.0,Medium,-0.22514560091487446,-24.91695897,-24.91695897,-0.18500515442315646
38,562563ceed6e5a000bc7f386,8.0,3.0,right,1.3292,,50.0,,1.0,0.0,Low,,,-24.91695897,0.2845772574983021
39,562563ceed6e5a000bc7f386,9.0,3.0,right,1.4318,,50.0,,1.0,0.0,Low,,,-24.91695897,0.3589323939799476
40,562563ceed6e5a000bc7f386,10.0,4.0,right,0.7279,2.2768,21.0,25.08304103,1.0,0.0,Medium,-0.22514560091487446,4.08304103,4.08304103,-0.3175916028579248
41,562563ceed6e5a000bc7f386,11.0,5.0,left,0.7981,,45.0,,0.0,1.0,Medium,,,4.08304103,-0.2255213761001738
42,562563ceed6e5a000bc7f386,12.0,8.0,left,3.4714,,50.0,,0.0,1.0,High,,,4.08304103,1.2445579708046441
43,562563ceed6e5a000bc7f386,13.0,3.0,right,0.8657,,50.0,,1.0,0.0,Low,,,4.08304103,-0.14421685076040894
44,562563ceed6e5a000bc7f386,14.0,8.0,left,0.921,2.5317,12.0,25.08304103,0.0,1.0,High,-0.22514560091487446,13.08304103,13.08304103,-0.08229524272683016
45,562563ceed6e5a000bc7f386,15.0,5.0,left,1.2892,,50.0,,0.0,1.0,Medium,,,13.08304103,0.25402187095914563
46,562563ceed6e5a000bc7f386,16.0,4.0,right,0.6872,,50.0,,1.0,0.0,Medium,,,13.08304103,-0.37512990831209136
47,562563ceed6e5a000bc7f386,17.0,5.0,right,0.7182,2.4104,50.0,50.0,1.0,0.0,Medium,4.218528497077684,0.0,0.0,-0.33100719719015465
48,562563ceed6e5a000bc7f386,18.0,6.0,left,0.9749,,32.0,,0.0,1.0,Medium,,,0.0,-0.025420377346911223
49,562563ceed6e5a000bc7f386,19.0,2.0,right,1.0481,2.4446,50.0,25.08304103,1.0,0.0,Low,-0.22514560091487446,-24.91695897,-24.91695897,0.04697900119399464
50,562563ceed6e5a000bc7f386,20.0,4.0,right,0.6715,,50.0,,1.0,0.0,Medium,,,-24.91695897,-0.3982412630188448
51,562563ceed6e5a000bc7f386,21.0,9.0,left,4.449,2.1496,8.0,25.16608206,0.0,1.0,High,-0.21033611816355197,17.16608206,17.16608206,1.4926793518239048
52,562563ceed6e5a000bc7f386,22.0,7.0,left,0.8951,,50.0,,0.0,1.0,High,,,17.16608206,-0.11081983510524378
53,562563ceed6e5a000bc7f386,23.0,7.0,left,1.2668,,27.0,,0.0,1.0,High,,,17.16608206,0.23649403568234761
54,562563ceed6e5a000bc7f386,24.0,6.0,right,2.5967,5.4674,50.0,24.08654868,1.0,0.0,Medium,-0.40285939214734995,-25.91345132,-25.91345132,0.9542414081026289
55,562563ceed6e5a000bc7f386,25.0,6.0,right,1.0458,,26.0,,1.0,0.0,Medium,,,-25.91345132,0.04478214277189325
56,562563ceed6e5a000bc7f386,26.0,2.0,right,0.6999,,50.0,,1.0,0.0,Low,,,-25.91345132,-0.35681781128664314
57,562563ceed6e5a000bc7f386,27.0,7.0,left,0.8077,6.4165,50.0,23.42222045,0.0,1.0,High,-0.5213352523745355,-26.57777955,-26.57777955,-0.21356457653388647
58,562563ceed6e5a000bc7f386,28.0,1.0,right,1.5469,,45.0,,1.0,0.0,Low,,,-26.57777955,0.4362529282604821
59,562563ceed6e5a000bc7f386,29.0,4.0,right,0.7213,3.1272,15.0,23.42222045,1.0,0.0,Medium,-0.5213352523745355,8.422220450000001,8.422220450000001,-0.32670013947251003
0,56259489ed6e5a0005c80fde,0.0,5.0,left,1.2077,,30.0,,0.0,1.0,Medium,,,,0.1887177242991925
1,56259489ed6e5a0005c80fde,1.0,5.0,left,0.7864,,50.0,,0.0,1.0,Medium,,,,-0.24028971014918027
2,56259489ed6e5a0005c80fde,2.0,3.0,right,1.1682,,6.0,,1.0,0.0,Low,,,,0.15546410262407187
3,56259489ed6e5a0005c80fde,3.0,5.0,left,1.0259,4.7395,50.0,36.63312818,0.0,1.0,Medium,-0.006179031140629091,-13.36687182,-13.36687182,0.025570276111530045
4,56259489ed6e5a0005c80fde,4.0,4.0,right,1.1152,,50.0,,1.0,0.0,Medium,,,-13.36687182,0.10903376102412236
5,56259489ed6e5a0005c80fde,5.0,4.0,right,1.088,3.0961,50.0,18.74055268,1.0,0.0,Medium,-2.5025842549339727,-31.25944732,-31.25944732,0.08434114843375096
6,56259489ed6e5a0005c80fde,6.0,9.0,left,1.1491,,7.0,,0.0,1.0,High,,,-31.25944732,0.13897902728145098
7,56259489ed6e5a0005c80fde,7.0,8.0,left,1.9339,3.7809,37.0,44.30980545,0.0,1.0,High,1.0648851786040006,7.309805449999999,7.309805449999999,0.6595386893861157
8,56259489ed6e5a0005c80fde,8.0,1.0,right,1.1045,,10.0,,1.0,0.0,Low,,,7.309805449999999,0.09939274387803484
9,56259489ed6e5a0005c80fde,9.0,5.0,left,1.1649,,50.0,,0.0,1.0,Medium,,,7.309805449999999,0.1526352464235943
10,56259489ed6e5a0005c80fde,10.0,5.0,left,1.1302,,9.0,,0.0,1.0,Medium,,,7.309805449999999,0.12239460821360598
11,56259489ed6e5a0005c80fde,11.0,4.0,right,1.2114,36.5665,43.0,32.2042733,1.0,0.0,Medium,-0.6241010545997253,-10.795726700000003,-10.795726700000003,0.1917767155647098
12,56259489ed6e5a0005c80fde,12.0,9.0,left,0.8263,,50.0,,0.0,1.0,High,,,-10.795726700000003,-0.19079737527499832
13,56259489ed6e5a0005c80fde,13.0,2.0,right,1.201,,50.0,,1.0,0.0,Low,,,-10.795726700000003,0.18315454309784654
14,56259489ed6e5a0005c80fde,14.0,7.0,left,1.1133,,50.0,,0.0,1.0,High,,,-10.795726700000003,0.10732857775252451
15,56259489ed6e5a0005c80fde,15.0,7.0,left,0.9007,3.3872,50.0,46.6128154,0.0,1.0,High,1.3862053859507883,-3.3871845999999977,-3.3871845999999977,-0.10458304019243997
16,56259489ed6e5a0005c80fde,16.0,2.0,right,0.9256,,50.0,,1.0,0.0,Low,,,-3.3871845999999977,-0.07731310310267026
17,56259489ed6e5a0005c80fde,17.0,3.0,right,0.9384,,24.0,,1.0,0.0,Low,,,-3.3871845999999977,-0.06357898164287133
18,56259489ed6e5a0005c80fde,18.0,8.0,left,1.184,2.6943,50.0,44.07360346,0.0,1.0,High,1.0319298401337855,-5.926396539999999,-5.926396539999999,0.16889853646181388
19,56259489ed6e5a0005c80fde,19.0,2.0,left,1.1001,,50.0,,0.0,1.0,Low,,,-5.926396539999999,0.09540108476325304
20,56259489ed6e5a0005c80fde,20.0,1.0,right,0.9626,,50.0,,1.0,0.0,Low,,,-5.926396539999999,-0.038117322113128044
21,56259489ed6e5a0005c80fde,21.0,5.0,left,0.9666,3.4519,50.0,32.2633238,0.0,1.0,Medium,-0.6158622196333662,-17.736676199999998,-17.736676199999998,-0.03397051957115334
22,56259489ed6e5a0005c80fde,22.0,8.0,left,1.0605,,50.0,,0.0,1.0,High,,,-17.736676199999998,0.058740495022600085
23,56259489ed6e5a0005c80fde,23.0,3.0,right,1.167,,50.0,,1.0,0.0,Low,,,-17.736676199999998,0.15443635330441896
24,56259489ed6e5a0005c80fde,24.0,6.0,left,0.8698,40.5673,50.0,35.7473572,0.0,1.0,Medium,-0.12976343639053517,-14.252642799999997,-14.252642799999997,-0.139491978818599
25,56259489ed6e5a0005c80fde,25.0,6.0,left,1.5401,,39.0,,0.0,1.0,Medium,,,-14.252642799999997,0.4318473493822828
26,56259489ed6e5a0005c80fde,26.0,4.0,right,1.5831,2.5559,50.0,24.76379351,1.0,0.0,Medium,-1.66221055511768,-25.23620649,-25.23620649,0.4593849500975948
27,56259489ed6e5a0005c80fde,27.0,6.0,left,0.7922,,50.0,,0.0,1.0,Medium,,,-25.23620649,-0.23294139379432077
28,56259489ed6e5a0005c80fde,28.0,7.0,left,0.6209,,50.0,,0.0,1.0,High,,,-25.23620649,-0.47658524061128993
29,56259489ed6e5a0005c80fde,29.0,6.0,left,0.6007,78.9304,50.0,37.45984415,0.0,1.0,Medium,0.10916590989937863,-12.540155849999998,-12.540155849999998,-0.5096596371260212
30,56259489ed6e5a0005c80fde,0.0,5.0,left,1.3221,,50.0,,0.0,1.0,Medium,,,-12.540155849999998,0.279221381533914
31,56259489ed6e5a0005c80fde,1.0,1.0,right,1.0179,,50.0,,1.0,0.0,Low,,,-12.540155849999998,0.017741681476157126
32,56259489ed6e5a0005c80fde,2.0,6.0,left,0.7008,,50.0,,0.0,1.0,Medium,,,-12.540155849999998,-0.3555327393599554
33,56259489ed6e5a0005c80fde,3.0,7.0,left,0.6027,2.9782,50.0,44.13265847,0.0,1.0,High,1.0401693043436848,-5.867341529999997,-5.867341529999997,-0.5063357184931386
34,56259489ed6e5a0005c80fde,4.0,1.0,right,2.0003,,36.0,,1.0,0.0,Low,,,-5.867341529999997,0.6932971693110703
35,56259489ed6e5a0005c80fde,5.0,9.0,left,1.0236,2.9895,50.0,46.02230141,0.0,1.0,High,1.3038157819857772,-3.977698590000003,-3.977698590000003,0.023325825303496757
36,56259489ed6e5a0005c80fde,6.0,5.0,left,0.5358,,12.0,,0.0,1.0,Medium,,,-3.977698590000003,-0.6239943218716286
37,56259489ed6e5a0005c80fde,7.0,8.0,left,0.6547,2.8347,32.0,42.47921301,0.0,1.0,High,0.8094775359282664,10.479213010000002,10.479213010000002,-0.4235781635350914
38,56259489ed6e5a0005c80fde,8.0,6.0,left,0.6507,,50.0,,0.0,1.0,Medium,,,10.479213010000002,-0.42970657248119876
39,56259489ed6e5a0005c80fde,9.0,8.0,left,0.6022,,37.0,,0.0,1.0,High,,,10.479213010000002,-0.5071656629345037
40,56259489ed6e5a0005c80fde,10.0,4.0,right,0.917,,50.0,,1.0,0.0,Medium,,,10.479213010000002,-0.08664780672567216
41,56259489ed6e5a0005c80fde,11.0,7.0,left,1.1397,2.2047,50.0,38.81802811,0.0,1.0,High,0.29866224778636,-11.18197189,-11.18197189,0.13076506987955247
42,56259489ed6e5a0005c80fde,12.0,5.0,left,0.5505,,10.0,,0.0,1.0,Medium,,,-11.18197189,-0.5969283228194024
43,56259489ed6e5a0005c80fde,13.0,3.0,right,0.854,,50.0,,1.0,0.0,Low,,,-11.18197189,-0.15782408519356722
44,56259489ed6e5a0005c80fde,14.0,9.0,left,0.7213,,21.0,,0.0,1.0,High,,,-11.18197189,-0.32670013947251003
45,56259489ed6e5a0005c80fde,15.0,4.0,right,1.0058,2.3039,50.0,36.39692168,1.0,0.0,Medium,-0.03913499885438535,-13.603078320000002,-13.603078320000002,0.005783244755727361
46,56259489ed6e5a0005c80fde,16.0,2.0,right,0.8836,,21.0,,1.0,0.0,Low,,,-13.603078320000002,-0.12375080743617488
47,56259489ed6e5a0005c80fde,17.0,3.0,right,0.5676,,50.0,,1.0,0.0,Low,,,-13.603078320000002,-0.5663383336962494
48,56259489ed6e5a0005c80fde,18.0,6.0,left,0.8584,1.8383,50.0,37.22364216,0.0,1.0,Medium,0.07621057142916256,-12.776357840000003,-12.776357840000003,-0.15268508766564828
49,56259489ed6e5a0005c80fde,19.0,4.0,right,0.9353,,47.0,,1.0,0.0,Medium,,,-12.776357840000003,-0.06688794554163173
50,56259489ed6e5a0005c80fde,20.0,3.0,right,0.8055,,50.0,,1.0,0.0,Low,,,-12.776357840000003,-0.216292076365108
51,56259489ed6e5a0005c80fde,21.0,8.0,left,0.8388,3.2363,12.0,30.19652486,0.0,1.0,High,-0.9042258300228571,18.19652486,18.19652486,-0.17578297995437217
52,56259489ed6e5a0005c80fde,22.0,2.0,right,0.7938,,50.0,,1.0,0.0,Low,,,18.19652486,-0.23092373863317212
53,56259489ed6e5a0005c80fde,23.0,5.0,left,0.8293,,50.0,,0.0,1.0,Medium,,,18.19652486,-0.18717330752497896
54,56259489ed6e5a0005c80fde,24.0,7.0,left,0.8827,2.9873,50.0,39.1723356,0.0,1.0,High,0.34809588403761405,-10.827664400000003,-10.827664400000003,-0.12476988695594983
55,56259489ed6e5a0005c80fde,25.0,5.0,left,0.5994,,50.0,,0.0,1.0,Medium,,,-10.827664400000003,-0.5118261240995742
56,56259489ed6e5a0005c80fde,26.0,6.0,left,0.5547,2.1652,34.0,34.74348073,0.0,1.0,Medium,-0.2698261380262626,0.7434807300000017,0.7434807300000017,-0.5893278519209483
57,56259489ed6e5a0005c80fde,27.0,5.0,left,0.6434,,33.0,,0.0,1.0,Medium,,,0.7434807300000017,-0.4409886641772111
58,56259489ed6e5a0005c80fde,28.0,4.0,right,0.833,,34.0,,1.0,0.0,Medium,,,0.7434807300000017,-0.1827216368152944
59,56259489ed6e5a0005c80fde,29.0,2.0,right,0.8152,2.3054,50.0,31.55470431,1.0,0.0,Low,-0.7147301213794158,-18.44529569,-18.44529569,-0.20432179707362194
0,567dd32b4f0ef30006dbb718,0.0,5.0,right,2.794,,50.0,,1.0,0.0,Medium,,,,1.02747426083477
1,567dd32b4f0ef30006dbb718,1.0,2.0,right,1.069,5.869,14.0,25.14538796,1.0,0.0,Low,-0.29039167329481075,11.14538796,11.14538796,0.06672363204290813
2,567dd32b4f0ef30006dbb718,2.0,5.0,right,1.495,,20.0,,1.0,0.0,Medium,,,11.14538796,0.4021262068426498
3,567dd32b4f0ef30006dbb718,3.0,6.0,right,1.723,,17.0,,1.0,0.0,Medium,,,11.14538796,0.5440669575457926
4,567dd32b4f0ef30006dbb718,4.0,6.0,right,0.934,,50.0,,1.0,0.0,Medium,,,11.14538796,-0.06827884075329438
5,567dd32b4f0ef30006dbb718,5.0,4.0,right,0.86,5.296,50.0,25.76848738,1.0,0.0,Medium,0.07259791795960562,-24.23151262,-24.23151262,-0.15082288973458366
6,567dd32b4f0ef30006dbb718,6.0,8.0,left,5.089,,50.0,,0.0,1.0,High,,,-24.23151262,1.6270813476066956
7,567dd32b4f0ef30006dbb718,7.0,3.0,right,0.978,,10.0,,1.0,0.0,Low,,,-24.23151262,-0.022245608947319737
8,567dd32b4f0ef30006dbb718,8.0,9.0,left,2.697,4.94,25.0,29.9224835,0.0,1.0,High,2.492528518554986,4.9224834999999985,4.9224834999999985,0.9921400441575929
9,567dd32b4f0ef30006dbb718,9.0,7.0,left,5.229,,50.0,,0.0,1.0,High,,,4.9224834999999985,1.6542200552059936
10,567dd32b4f0ef30006dbb718,10.0,4.0,right,1.152,3.331,50.0,25.24923787,1.0,0.0,Medium,-0.22989340420204168,-24.75076213,-24.75076213,0.14149956227369942
11,567dd32b4f0ef30006dbb718,11.0,2.0,right,1.213,,50.0,,1.0,0.0,Low,,,-24.75076213,0.19309662996191315
12,567dd32b4f0ef30006dbb718,12.0,3.0,right,0.826,,13.0,,1.0,0.0,Low,,,-24.75076213,-0.19116050546115904
13,567dd32b4f0ef30006dbb718,13.0,7.0,left,3.561,3.661,30.0,25.24923787,0.0,1.0,High,-0.22989340420204168,-4.750762129999998,-4.750762129999998,1.2700414042956407
14,567dd32b4f0ef30006dbb718,14.0,1.0,right,0.71,,14.0,,1.0,0.0,Low,,,-4.750762129999998,-0.342490308946776
15,567dd32b4f0ef30006dbb718,15.0,4.0,right,0.878,,50.0,,1.0,0.0,Medium,,,-4.750762129999998,-0.1301086853470204
16,567dd32b4f0ef30006dbb718,16.0,6.0,right,1.35,,12.0,,1.0,0.0,Medium,,,-4.750762129999998,0.30010459245033816
17,567dd32b4f0ef30006dbb718,17.0,7.0,left,2.358,4.086,8.0,22.8606901,0.0,1.0,High,-1.6213535001269421,14.8606901,14.8606901,0.8578138021151792
18,567dd32b4f0ef30006dbb718,18.0,8.0,right,1.062,,30.0,,1.0,0.0,High,,,14.8606901,0.060153922819747144
19,567dd32b4f0ef30006dbb718,19.0,9.0,left,1.617,6.892,21.0,27.32623592,0.0,1.0,High,0.9800718902700986,6.3262359199999985,6.3262359199999985,0.48057258059496977
20,567dd32b4f0ef30006dbb718,20.0,6.0,right,2.033,,25.0,,1.0,0.0,Medium,,,6.3262359199999985,0.7095125346462096
21,567dd32b4f0ef30006dbb718,21.0,8.0,left,1.875,,16.0,,0.0,1.0,High,,,6.3262359199999985,0.6286086594223741
22,567dd32b4f0ef30006dbb718,22.0,2.0,right,1.471,,27.0,,1.0,0.0,Low,,,6.3262359199999985,0.3859424416193005
23,567dd32b4f0ef30006dbb718,23.0,5.0,right,1.397,4.676,15.0,27.32623592,1.0,0.0,Medium,0.9800718902700986,12.326235919999998,12.326235919999998,0.3343270802748248
24,567dd32b4f0ef30006dbb718,24.0,4.0,right,2.055,,7.0,,1.0,0.0,Medium,,,12.326235919999998,0.720275847948198
25,567dd32b4f0ef30006dbb718,25.0,1.0,right,2.336,,16.0,,1.0,0.0,Low,,,12.326235919999998,0.8484400649659806
26,567dd32b4f0ef30006dbb718,26.0,5.0,right,1.772,4.025,20.0,25.24923787,1.0,0.0,Medium,-0.22989340420204168,5.249237870000002,5.249237870000002,0.5721088521828892
27,567dd32b4f0ef30006dbb718,27.0,5.0,right,1.885,,48.0,,1.0,0.0,Medium,,,5.249237870000002,0.6339278208999741
28,567dd32b4f0ef30006dbb718,28.0,3.0,right,1.235,,50.0,,1.0,0.0,Low,,,5.249237870000002,0.2110709700799406
29,567dd32b4f0ef30006dbb718,29.0,5.0,right,1.798,5.652,50.0,24.10688893,1.0,0.0,Medium,-0.8953743234436564,-25.89311107,-25.89311107,0.5866749360494286
30,567dd32b4f0ef30006dbb718,0.0,5.0,right,1.697,,36.0,,1.0,0.0,Medium,,,-25.89311107,0.5288619862520894
31,567dd32b4f0ef30006dbb718,1.0,3.0,right,1.04,2.577,25.0,24.10688893,1.0,0.0,Low,-0.8953743234436564,-0.8931110699999998,-0.8931110699999998,0.03922071315328133
32,567dd32b4f0ef30006dbb718,2.0,7.0,left,2.775,,50.0,,0.0,1.0,High,,,-0.8931110699999998,1.0206507471983979
33,567dd32b4f0ef30006dbb718,3.0,2.0,right,1.315,,50.0,,1.0,0.0,Low,,,-0.8931110699999998,0.27383666562972786
34,567dd32b4f0ef30006dbb718,4.0,6.0,right,2.448,,34.0,,1.0,0.0,Medium,,,-0.8931110699999998,0.8952713646500796
35,567dd32b4f0ef30006dbb718,5.0,8.0,left,2.713,3.158,50.0,24.10688893,0.0,1.0,High,-0.8953743234436564,-25.89311107,-25.89311107,0.9980550336767947
36,567dd32b4f0ef30006dbb718,6.0,3.0,right,2.089,,50.0,,1.0,0.0,Low,,,-25.89311107,0.7366854825744287
37,567dd32b4f0ef30006dbb718,7.0,1.0,right,1.403,,17.0,,1.0,0.0,Low,,,-25.89311107,0.3386128011203239
38,567dd32b4f0ef30006dbb718,8.0,2.0,right,2.122,5.087,50.0,24.10688893,1.0,0.0,Low,-0.8953743234436564,-25.89311107,-25.89311107,0.7523590401917913
39,567dd32b4f0ef30006dbb718,9.0,6.0,right,4.877,,18.0,,1.0,0.0,Medium,,,-25.89311107,1.5845302767279155
40,567dd32b4f0ef30006dbb718,10.0,5.0,right,1.586,2.24,50.0,24.10688893,1.0,0.0,Medium,-0.8953743234436564,-25.89311107,-25.89311107,0.4612151232126563
41,567dd32b4f0ef30006dbb718,11.0,8.0,left,2.008,,50.0,,0.0,1.0,High,,,-25.89311107,0.6971392018294827
42,567dd32b4f0ef30006dbb718,12.0,7.0,left,3.163,,27.0,,0.0,1.0,High,,,-25.89311107,1.1515209443235117
43,567dd32b4f0ef30006dbb718,13.0,4.0,right,1.646,4.986,50.0,24.21073884,1.0,0.0,Medium,-0.8348760543508873,-25.78926116,-25.78926116,0.498348102254878
44,567dd32b4f0ef30006dbb718,14.0,7.0,left,2.671,,50.0,,0.0,1.0,High,,,-25.78926116,0.9824529341278238
45,567dd32b4f0ef30006dbb718,15.0,3.0,right,1.309,,50.0,,1.0,0.0,Low,,,-25.78926116,0.2692634869277628
46,567dd32b4f0ef30006dbb718,16.0,6.0,right,2.183,,50.0,,1.0,0.0,Medium,,,-25.78926116,0.7807000775678068
47,567dd32b4f0ef30006dbb718,17.0,5.0,right,1.535,3.969,18.0,27.43008583,1.0,0.0,Medium,1.0405701593628676,9.43008583,9.43008583,0.4285303810391604
48,567dd32b4f0ef30006dbb718,18.0,4.0,right,2.131,,50.0,,1.0,0.0,Medium,,,9.43008583,0.75659135311648
